"","subject","trial","isi","lexicality","prime","target","accuracy","RT","rel"
"3",11,783,1050,1,"EMPATHY","slow",0,0,"un"
"10",13,825,1050,1,"NIGHTGOWN","confess",0,0,"un"
"11",14,599,50,1,"SWEATER","assume",0,0,"un"
"16",18,741,50,1,"BOSS","environment",0,0,"un"
"18",21,80,50,1,"WED","idiot",0,0,"un"
"24",30,337,1050,1,"LIVE","none",0,0,"un"
"33",43,638,1050,1,"NAIL","doe",0,0,"un"
"35",43,660,1050,1,"SOAK","doctor",0,0,"un"
"36",43,664,1050,1,"EAGER","tissue",0,0,"un"
"39",43,722,1050,1,"SUPPORT","chip",0,0,"un"
"41",43,764,1050,1,"LIGHTHEADED","oil",0,0,"un"
"43",43,368,50,1,"QUART","rice",0,0,"un"
"45",43,400,50,1,"RESTAURANT","man",0,0,"un"
"46",43,436,1050,1,"MEXICO","control",0,0,"un"
"47",43,438,1050,1,"CURIOSITY","work",0,0,"un"
"48",43,452,1050,1,"PRETEND","higher",0,0,"un"
"764",13,270,50,1,"GRIP","sale",0,0,"un"
"765",13,614,1050,1,"AWARENESS","goal",0,0,"un"
"767",14,783,50,1,"ATTIRE","hip",0,0,"un"
"769",18,397,1050,1,"PUDDING","stiff",0,0,"un"
"772",25,257,50,1,"LIKE","britain",0,0,"un"
"773",29,487,1050,1,"CELERY","stay",0,0,"un"
"776",30,352,1050,1,"WOMEN","bank",0,0,"un"
"780",43,468,1050,1,"MOB","art",0,0,"un"
"781",43,498,1050,1,"DISGRACE","jungle",0,0,"un"
"783",43,569,1050,1,"COPIER","whine",0,0,"un"
"784",43,702,1050,1,"FOGGY","wear",0,0,"un"
"785",43,708,1050,1,"TOSS","builder",0,0,"un"
"786",43,713,1050,1,"COUNTY","shower",0,0,"un"
"788",43,750,1050,1,"JEWISH","prison",0,0,"un"
"789",43,377,50,1,"NECKLACE","hammer",0,0,"un"
"792",43,434,1050,1,"WINNER","jacket",0,0,"un"
"793",43,442,1050,1,"ESCALATOR","for",0,0,"un"
"1541",8,349,1050,1,"THERAPY","massage",0,0,"rel"
"1543",13,696,1050,1,"JUSTIFY","explain",0,0,"rel"
"1544",13,371,50,1,"POLITICS","republican",0,0,"rel"
"1547",18,494,50,1,"DEPTH","shallow",0,0,"rel"
"1550",21,600,1050,1,"SPIT","mouth",0,0,"rel"
"1551",21,676,1050,1,"SCHOLARSHIP","school",0,0,"rel"
"1553",25,29,50,1,"CALORIES","few",0,0,"rel"
"1555",30,379,1050,1,"TRANSPARENT","tape",0,0,"rel"
"1562",43,657,1050,1,"GRAVE","die",0,0,"rel"
"1563",43,691,1050,1,"IRREGULAR","abnormal",0,0,"rel"
"1566",43,720,1050,1,"STRAIN","back",0,0,"rel"
"1569",43,766,1050,1,"FIT","tantrum",0,0,"rel"
"1572",43,362,50,1,"PATIENT","nurse",0,0,"rel"
"2306",19,379,50,1,"GONE","left",0,0,"rel"
"2313",30,325,1050,1,"TREBLE","bass",0,0,"rel"
"2315",31,422,1050,1,"TOSS","throw",0,0,"rel"
"2317",31,421,50,1,"CHILDISH","immature",0,0,"rel"
"2320",37,340,50,1,"CHIPMUNK","squirrel",0,0,"rel"
"2322",43,448,1050,1,"JESUS","christ",0,0,"rel"
"2323",43,550,1050,1,"CHINA","dish",0,0,"rel"
"2324",43,565,1050,1,"RACKET","tennis",0,0,"rel"
"2328",43,649,1050,1,"GIN","tonic",0,0,"rel"
"2329",43,651,1050,1,"SURVIVE","live",0,0,"rel"
"2330",43,666,1050,1,"SCAPEGOAT","blame",0,0,"rel"
"2333",43,772,1050,1,"ANTEATER","ant",0,0,"rel"
"2334",43,774,1050,1,"DISBELIEVE","believe",0,0,"rel"
"2335",43,780,1050,1,"ANTIDOTE","cure",0,0,"rel"
"2336",43,343,50,1,"SHRINE","temple",0,0,"rel"
"2337",43,385,50,1,"BEST","worst",0,0,"rel"
"2338",43,444,1050,1,"LIVER","onion",0,0,"rel"
"2339",43,446,1050,1,"WIT","smart",0,0,"rel"
"2340",43,447,1050,1,"TOUCH","feel",0,0,"rel"
"2341",43,465,1050,1,"POSITIVE","negative",0,0,"rel"
"2346",45,681,1050,1,"HAND","finger",0,0,"rel"
"2347",47,576,1050,1,"CHILDISH","immature",0,0,"rel"
"3142",47,212,50,1,"ZIT","writer",1,9,"un"
"3215",45,97,50,1,"SHOVEL","sand",0,17,"rel"
"3429",21,815,1050,1,"FLOAT","sink",0,44,"rel"
"3536",13,555,1050,1,"DAUGHTER","son",1,58,"rel"
"3689",47,84,50,1,"CAMERA","picture",1,74,"rel"
"3752",47,607,1050,1,"DECORATION","christmas",0,82,"rel"
"3759",14,399,1050,1,"SUNRISE","sunset",1,83,"rel"
"3826",47,6,50,1,"CANVASS","failure",0,92,"un"
"3857",14,128,1050,1,"COMPANION","partner",1,96,"rel"
"3913",18,420,50,1,"OBTAIN","steal",1,106,"rel"
"3974",2,517,50,1,"SLANDER","rough",0,115,"un"
"3987",18,417,50,1,"TAR","explain",1,117,"un"
"4029",18,416,50,1,"HAIR","shampoo",1,123,"rel"
"4115",8,755,50,1,"FRANKENSTEIN","monster",1,136,"rel"
"4278",18,349,1050,1,"MEN","women",1,160,"rel"
"4333",8,808,50,1,"BAGEL","sale",1,172,"un"
"4392",18,422,50,1,"TACTFUL","something",1,184,"un"
"4407",23,567,1050,1,"INFLATION","soup",0,187,"un"
"4475",47,573,1050,1,"PLAYGROUND","gum",1,200,"un"
"4557",37,572,1050,1,"HAMMOCK","unfair",1,214,"un"
"4591",47,4,50,1,"EARLY","protection",1,222,"un"
"4607",18,403,1050,1,"PANCAKES","tree",1,225,"un"
"4620",18,406,1050,1,"BREATH","job",1,227,"un"
"4621",18,415,1050,1,"EXPERT","come",1,227,"un"
"4630",18,405,1050,1,"TYPIST","france",1,228,"un"
"4634",18,431,50,1,"ALIVE","create",1,229,"un"
"4635",18,414,1050,1,"DEAL","bother",1,229,"un"
"4643",18,426,50,1,"BOIL","pot",1,230,"rel"
"4654",13,501,1050,1,"DONKEY","ass",1,231,"rel"
"4749",18,413,1050,1,"DARING","brave",1,247,"rel"
"4790",18,372,1050,1,"WASTED","actor",1,256,"un"
"4791",47,87,50,1,"CONSTRUCT","bone",1,256,"un"
"4812",47,562,1050,1,"FOND","fish",0,259,"rel"
"4814",47,8,50,1,"MIST","fog",0,259,"rel"
"4819",47,677,1050,1,"STORM","ashtray",0,261,"un"
"4858",18,382,1050,1,"ESSENCE","meaning",1,267,"rel"
"4859",18,90,1050,1,"FINGER","hand",1,267,"rel"
"4871",18,373,1050,1,"THANKS","succeed",1,269,"un"
"4930",47,85,50,1,"PROFESSIONAL","begin",0,278,"un"
"4970",18,432,50,1,"ARMY","navy",1,283,"rel"
"4996",18,387,1050,1,"CHAIN","china",1,287,"un"
"4997",26,40,1050,1,"COPPER","land",1,287,"un"
"5003",18,424,50,1,"PROTECTION","jewish",0,288,"un"
"5008",47,287,50,1,"BECAUSE","why",0,288,"rel"
"5017",26,101,1050,1,"SLING","shot",1,289,"rel"
"5028",26,39,1050,1,"FRENCH","rocks",1,291,"un"
"5029",47,100,50,1,"EXPENSIVE","shave",1,291,"un"
"5038",18,444,50,1,"CAMPING","four",1,292,"un"
"5104",47,117,50,1,"HEROIN","drugs",1,298,"rel"
"5118",47,253,50,1,"CORK","states",1,300,"un"
"5150",18,215,1050,1,"FREEZE","joke",1,303,"un"
"5151",47,174,50,1,"SADDLE","boys",1,303,"un"
"5152",47,563,1050,1,"REFRAIN","follower",1,303,"un"
"5159",44,12,1050,1,"CHECK","cash",1,303,"rel"
"5170",44,203,1050,1,"NOTIFY","alert",1,304,"rel"
"5191",26,224,1050,1,"ACCEPT","understand",1,306,"rel"
"5195",18,425,50,1,"SOFT","package",0,307,"un"
"5203",18,232,1050,1,"HARMFUL","desert",1,307,"un"
"5225",26,450,50,1,"PIE","apple",1,308,"rel"
"5227",26,188,1050,1,"TRAFFIC","liar",1,309,"un"
"5241",26,3,1050,1,"AMUSE","beer",1,310,"un"
"5340",18,309,1050,1,"BEDROOM","bathroom",1,316,"rel"
"5349",26,304,1050,1,"PRESS","grab",1,317,"un"
"5352",26,322,1050,1,"RUM","meeting",1,317,"un"
"5371",26,442,50,1,"BROCCOLI","spinach",1,318,"rel"
"5374",18,208,1050,1,"MALL","shop",1,318,"rel"
"5375",18,412,1050,1,"MARCH","april",1,318,"rel"
"5384",18,364,1050,1,"MAYBE","ignore",1,319,"un"
"5388",18,311,1050,1,"NIGHTGOWN","sexy",1,319,"rel"
"5389",36,55,1050,1,"CARELESS","messy",0,319,"rel"
"5408",20,109,1050,1,"AUNT","uncle",1,320,"rel"
"5412",26,109,1050,1,"APPEAR","whale",1,321,"un"
"5416",18,184,1050,1,"RIDICULOUS","more",1,321,"un"
"5432",18,538,50,1,"INMATE","prison",1,322,"rel"
"5468",26,141,1050,1,"REGRET","speed",1,324,"un"
"5469",47,565,1050,1,"WAIT","long",0,324,"un"
"5510",18,294,1050,1,"PLUS","minus",1,325,"rel"
"5511",26,444,50,1,"ATTEND","go",1,325,"rel"
"5518",26,13,1050,1,"CURVED","novel",1,326,"un"
"5531",18,331,1050,1,"FITNESS","healthy",1,326,"rel"
"5532",26,170,1050,1,"WHITE","black",1,326,"rel"
"5545",5,809,1050,1,"POCKET","there",1,327,"un"
"5556",26,384,1050,1,"WET","dry",1,327,"rel"
"5568",18,161,1050,1,"DIFFICULTY","trouble",1,328,"rel"
"5580",26,448,50,1,"INTERVIEW","beat",1,329,"un"
"5596",26,285,1050,1,"ATTENDANCE","present",1,329,"rel"
"5610",47,369,50,1,"KEYBOARD","pool",1,330,"un"
"5616",26,374,1050,1,"ENVY","greed",1,330,"rel"
"5641",33,171,50,1,"CLARIFY","tape",1,331,"un"
"5662",33,301,50,1,"ANTIQUE","furniture",1,331,"rel"
"5689",26,225,1050,1,"INTERIOR","inferior",1,332,"rel"
"5690",26,336,1050,1,"HOUND","blood",1,332,"rel"
"5691",36,114,1050,1,"TERRIBLE","two",1,332,"rel"
"5704",18,392,1050,1,"COMFORTABLE","wrong",1,333,"un"
"5709",18,242,1050,1,"INDIRECT","doctor",1,333,"un"
"5715",36,142,1050,1,"POTATO","salad",0,333,"rel"
"5725",18,342,1050,1,"TOE","foot",1,333,"rel"
"5726",18,221,1050,1,"TENSION","stress",1,333,"rel"
"5740",18,206,1050,1,"CRUNCH","ball",1,334,"un"
"5772",18,200,1050,1,"CHOCOLATE","leather",1,335,"un"
"5800",47,567,1050,1,"REMOVER","disease",1,336,"un"
"5801",5,298,50,1,"ABSURD","satin",1,336,"un"
"5802",26,137,1050,1,"GRAVEL","chair",1,336,"un"
"5823",45,768,1050,1,"TRANSPLANT","heart",1,336,"rel"
"5847",18,210,1050,1,"ANTIQUE","furniture",1,337,"rel"
"5854",26,230,1050,1,"RIGHTEOUSNESS","good",1,337,"rel"
"5869",14,11,1050,1,"EXIST","room",1,338,"un"
"5876",15,206,50,1,"KEYBOARD","pool",1,338,"un"
"5928",18,375,1050,1,"CURIOUS","george",1,339,"rel"
"5929",18,487,50,1,"OUTDOORS","indoors",1,339,"rel"
"5930",26,33,1050,1,"BLEND","mix",1,339,"rel"
"5946",18,525,50,1,"OPPOSITE","monk",1,340,"un"
"5954",44,435,50,1,"YARN","weave",1,340,"rel"
"5965",2,392,1050,1,"LONDON","england",1,340,"rel"
"5966",18,241,1050,1,"HURT","pain",1,340,"rel"
"5967",36,141,1050,1,"SONG","sing",1,340,"rel"
"5990",30,578,50,1,"SOCK","beast",1,341,"un"
"5991",44,647,50,1,"PUNCTUATION","kitchen",1,341,"un"
"5999",42,195,1050,1,"TRUCE","even",1,341,"rel"
"6009",16,74,1050,1,"WEEKEND","fun",1,341,"rel"
"6021",18,298,1050,1,"NEPHEW","broken",1,342,"un"
"6022",18,371,1050,1,"ICEBERG","game",1,342,"un"
"6050",26,429,50,1,"UPSTREAM","water",1,342,"rel"
"6062",26,1,1050,1,"MESSAGE","note",1,342,"rel"
"6102",2,150,1050,1,"ITCH","scratch",1,343,"rel"
"6104",26,452,50,1,"ABOVE","below",1,343,"rel"
"6114",26,91,1050,1,"FARMER","sleep",1,344,"un"
"6133",26,438,50,1,"BREAKFAST","cereal",1,344,"rel"
"6147",2,166,1050,1,"GHOUL","ghost",1,344,"rel"
"6148",18,496,50,1,"REFLECTION","mirror",1,344,"rel"
"6149",26,301,1050,1,"CAR","auto",1,344,"rel"
"6174",18,139,1050,1,"WOOD","log",1,345,"rel"
"6192",18,682,50,1,"ARROW","bow",1,345,"rel"
"6193",36,107,1050,1,"LIVER","onion",1,345,"rel"
"6208",44,789,50,1,"THINK","bucket",1,346,"un"
"6218",15,61,50,1,"PEN","weak",1,346,"un"
"6219",18,134,1050,1,"REFUSE","evil",1,346,"un"
"6247",18,284,1050,1,"SCENERY","view",1,346,"rel"
"6248",18,346,1050,1,"OZONE","layer",1,346,"rel"
"6249",18,617,50,1,"HORRIBLE","terrible",1,346,"rel"
"6269",18,325,1050,1,"RACK","tart",1,347,"un"
"6270",26,440,50,1,"SPINE","lace",1,347,"un"
"6286",18,155,1050,1,"TECHNIQUE","touch",1,347,"un"
"6298",18,522,50,1,"CREATOR","builder",1,347,"rel"
"6312",26,187,1050,1,"FURTHER","away",1,347,"rel"
"6313",26,298,1050,1,"POCKETBOOK","purse",1,347,"rel"
"6342",18,643,50,1,"SHELL","clam",1,348,"rel"
"6343",26,331,1050,1,"GALLOP","run",1,348,"rel"
"6344",47,45,50,1,"SECOND","minute",1,348,"rel"
"6364",2,413,1050,1,"LEDGE","cliff",1,348,"rel"
"6381",47,13,50,1,"TUNA","shot",1,349,"un"
"6399",18,322,1050,1,"CHROMOSOMES","sex",1,349,"rel"
"6409",9,608,1050,1,"BRUNETTE","blonde",1,349,"rel"
"6410",16,320,1050,1,"VALVE","car",1,349,"rel"
"6436",18,792,50,1,"PARTICIPATE","guard",1,350,"un"
"6443",18,233,1050,1,"DISHONEST","honest",1,350,"rel"
"6444",18,245,1050,1,"ACHIEVEMENT","success",1,350,"rel"
"6461",16,663,50,1,"TWICE","once",1,350,"rel"
"6493",18,167,1050,1,"PERFORM","lost",1,351,"un"
"6494",18,573,50,1,"SLIDE","drain",1,351,"un"
"6495",26,284,1050,1,"ABLE","beam",1,351,"un"
"6503",7,406,50,1,"THIRD","three",1,351,"rel"
"6504",16,591,50,1,"PAY","check",1,351,"rel"
"6505",26,85,1050,1,"JELLO","mold",1,351,"rel"
"6522",2,149,1050,1,"THUNDER","lightning",1,351,"rel"
"6523",5,822,1050,1,"DAUGHTER","son",1,351,"rel"
"6526",26,24,1050,1,"GROCERY","store",1,351,"rel"
"6527",26,639,50,1,"IRON","steel",1,351,"rel"
"6528",42,180,1050,1,"RETREAT","back",1,351,"rel"
"6547",15,120,50,1,"FLEA","bow",0,352,"un"
"6548",18,88,1050,1,"WASP","watch",1,352,"un"
"6574",26,465,50,1,"GRASS","lawn",1,352,"rel"
"6594",18,223,1050,1,"CONDITION","drunk",1,353,"un"
"6609",47,165,50,1,"GARBAGE","ready",1,353,"un"
"6620",18,267,1050,1,"UMPIRE","referee",1,353,"rel"
"6634",16,310,1050,1,"SCULPTURE","art",1,353,"rel"
"6635",42,460,50,1,"MEN","women",1,353,"rel"
"6657",47,29,50,1,"PLATFORM","liberty",1,354,"un"
"6674",18,205,1050,1,"COPPER","land",1,354,"un"
"6676",47,161,50,1,"BEAVER","rain",1,354,"un"
"6717",5,378,50,1,"NIECE","nephew",1,354,"rel"
"6732",26,190,1050,1,"SET","hot",1,355,"un"
"6748",47,30,50,1,"ENTRANCE","bush",1,355,"un"
"6765",3,158,50,1,"BANKER","bank",1,355,"rel"
"6766",5,459,1050,1,"BAND","play",1,355,"rel"
"6767",16,156,1050,1,"CHIMPANZEE","ape",1,355,"rel"
"6768",18,118,1050,1,"REVENGE","kill",1,355,"rel"
"6769",26,286,1050,1,"BUTTON","push",1,355,"rel"
"6784",15,207,50,1,"HUSBAND","wife",1,355,"rel"
"6785",18,443,50,1,"SNEEZE","cough",1,355,"rel"
"6816",5,293,50,1,"CONGRESS","cover",1,356,"un"
"6817",5,761,1050,1,"PIOUS","secret",1,356,"un"
"6818",18,231,1050,1,"REGRET","speed",1,356,"un"
"6819",26,134,1050,1,"PASTA","big",1,356,"un"
"6822",47,257,50,1,"UNCONSCIOUS","live",1,356,"un"
"6834",5,439,1050,1,"BIG","grand",1,356,"rel"
"6835",14,83,1050,1,"EVIL","nice",1,356,"rel"
"6836",18,318,1050,1,"PRICELESS","valuable",1,356,"rel"
"6837",26,192,1050,1,"TRAIN","station",1,356,"rel"
"6838",36,68,1050,1,"HUSTLE","fast",1,356,"rel"
"6857",16,123,1050,1,"SACK","bag",1,356,"rel"
"6858",26,599,50,1,"HERE","there",1,356,"rel"
"6904",18,464,50,1,"DEFENSE","poem",1,357,"un"
"6936",20,183,1050,1,"SHOW","tell",1,357,"rel"
"6981",5,552,1050,1,"ARMY","allow",1,358,"un"
"7001",18,386,1050,1,"ADVISE","advice",1,358,"rel"
"7002",20,410,1050,1,"STEAL","beg",1,358,"rel"
"7003",26,209,1050,1,"GYMNAST","tumble",1,358,"rel"
"7011",26,83,1050,1,"MONDAY","tuesday",1,358,"rel"
"7012",26,283,1050,1,"OUCH","hurt",1,358,"rel"
"7013",26,399,1050,1,"TARZAN","jane",1,358,"rel"
"7014",42,178,1050,1,"CHANCE","luck",1,358,"rel"
"7015",42,208,1050,1,"PROOF","evidence",1,358,"rel"
"7045",26,229,1050,1,"FOLLOW","lend",1,359,"un"
"7067",2,793,50,1,"INTERRUPT","up",1,359,"un"
"7080",5,471,1050,1,"BANQUET","eat",1,359,"rel"
"7081",18,95,1050,1,"BACKWARD","movement",1,359,"rel"
"7082",18,567,50,1,"BROWN","color",1,359,"rel"
"7083",26,23,1050,1,"REMIND","remember",1,359,"rel"
"7103",2,153,1050,1,"ROAST","beef",1,359,"rel"
"7105",42,467,50,1,"SUB","sandwich",1,359,"rel"
"7106",42,150,1050,1,"CORRIDOR","hall",1,359,"rel"
"7138",18,694,50,1,"SPELL","feet",1,360,"un"
"7153",18,402,1050,1,"HOMEWORK","father",1,360,"un"
"7154",36,66,1050,1,"ROBE","most",0,360,"un"
"7155",47,380,50,1,"DRILL","change",1,360,"un"
"7163",32,92,1050,1,"TRANQUIL","easy",1,360,"rel"
"7182",26,234,1050,1,"DEFEND","protect",1,360,"rel"
"7183",26,323,1050,1,"BIKE","ride",1,360,"rel"
"7234",18,209,1050,1,"OVERCOME","nothing",1,361,"un"
"7335",18,268,1050,1,"EXACT","east",1,362,"un"
"7354",18,98,1050,1,"FAITH","jesus",1,362,"rel"
"7356",33,169,50,1,"CARPENTER","hammer",1,362,"rel"
"7383",16,590,50,1,"BLEACH","white",1,362,"rel"
"7384",18,149,1050,1,"CONSTRUCTION","build",1,362,"rel"
"7386",33,645,1050,1,"OUT","in",1,362,"rel"
"7417",15,1,50,1,"CHEAP","auto",1,363,"un"
"7418",33,170,50,1,"BANQUET","less",1,363,"un"
"7443",18,615,50,1,"COMMUNIST","answer",1,363,"un"
"7444",26,35,1050,1,"COD","cans",1,363,"un"
"7445",26,184,1050,1,"WEIRD","spoon",1,363,"un"
"7465",26,750,50,1,"GRAB","bag",1,363,"rel"
"7479",26,177,1050,1,"HANDLE","care",1,363,"rel"
"7480",26,166,1050,1,"CONSTITUTION","rights",1,363,"rel"
"7481",33,117,50,1,"MAKE","do",1,363,"rel"
"7515",16,588,50,1,"BELL","army",1,364,"un"
"7516",18,461,50,1,"ANNOUNCE","sorrow",1,364,"un"
"7518",26,34,1050,1,"TIMES","sand",1,364,"un"
"7519",47,382,50,1,"COLD","cover",1,364,"un"
"7561",2,369,1050,1,"NUCLEAR","bomb",1,364,"rel"
"7562",15,176,50,1,"TREES","big",1,364,"rel"
"7563",26,268,1050,1,"KEYS","chain",1,364,"rel"
"7590",10,38,1050,1,"HALT","stop",1,364,"rel"
"7592",26,441,50,1,"EMOTION","feeling",1,364,"rel"
"7620",3,287,50,1,"JUSTICE","rose",1,365,"un"
"7622",47,43,50,1,"CLIFF","angel",1,365,"un"
"7642",18,202,1050,1,"BEG","low",1,365,"un"
"7643",26,69,1050,1,"PROVERB","silly",1,365,"un"
"7661",16,800,50,1,"TRADE","wind",1,365,"rel"
"7686",5,387,50,1,"GIGGLE","laugh",1,365,"rel"
"7687",42,228,1050,1,"WINDOW","glass",1,365,"rel"
"7710",18,630,50,1,"METAL","problem",1,366,"un"
"7725",18,278,1050,1,"FLAG","honor",1,366,"un"
"7726",26,94,1050,1,"CRISP","zoo",1,366,"un"
"7754",18,304,1050,1,"MONTHLY","annually",1,366,"rel"
"7776",5,214,50,1,"CONFUSION","lost",1,366,"rel"
"7777",16,493,50,1,"CUT","blood",1,366,"rel"
"7778",26,540,50,1,"SLOB","messy",1,366,"rel"
"7779",33,172,50,1,"FINISHED","done",1,366,"rel"
"7780",33,733,1050,1,"SOCK","shoe",1,366,"rel"
"7781",42,196,1050,1,"ALLOW","let",1,366,"rel"
"7809",16,290,1050,1,"PERSUADE","war",1,367,"un"
"7810",16,792,50,1,"BELLY","drop",1,367,"un"
"7827",26,28,1050,1,"HAND","necklace",1,367,"un"
"7828",42,304,1050,1,"GOING","security",1,367,"un"
"7863",5,554,1050,1,"BEANS","rice",1,367,"rel"
"7864",26,180,1050,1,"WOMEN","men",1,367,"rel"
"7865",42,28,1050,1,"ARMY","navy",1,367,"rel"
"7893",5,454,1050,1,"CREW","start",1,368,"un"
"7894",16,112,1050,1,"PHYSICIAN","sweet",1,368,"un"
"7895",18,336,1050,1,"SHADE","orange",1,368,"un"
"7896",18,423,50,1,"EXCUSE","camera",1,368,"un"
"7897",26,98,1050,1,"DISGUISE","bush",1,368,"un"
"7916",26,377,1050,1,"CALENDAR","cat",1,368,"un"
"7929",5,365,50,1,"PUMP","tire",1,368,"rel"
"7930",16,243,1050,1,"MALE","man",1,368,"rel"
"7931",19,52,50,1,"LET","do",1,368,"rel"
"7951",18,648,50,1,"SPEED","fast",1,368,"rel"
"7952",26,95,1050,1,"MEASUREMENT","ruler",1,368,"rel"
"7953",42,506,50,1,"HALF","whole",1,368,"rel"
"7976",18,127,1050,1,"OWE","many",1,369,"un"
"7999",5,820,1050,1,"COKE","thanks",1,369,"un"
"8000",18,578,50,1,"AFTER","sunset",1,369,"un"
"8019",26,112,1050,1,"PIT","hell",1,369,"rel"
"8021",42,428,50,1,"BELT","strap",1,369,"rel"
"8054",16,603,50,1,"TRICK","treat",1,369,"rel"
"8091",18,745,50,1,"EXPENSE","can",1,370,"un"
"8139",26,367,1050,1,"TASTY","treat",1,370,"rel"
"8140",42,525,50,1,"ATTENDANCE","present",1,370,"rel"
"8141",42,210,1050,1,"BUDGET","plan",1,370,"rel"
"8163",18,147,1050,1,"BEAN","green",1,370,"rel"
"8164",26,567,50,1,"ADVENTUROUS","daring",1,370,"rel"
"8208",26,73,1050,1,"STICK","sunday",1,371,"un"
"8237",26,185,1050,1,"DEVIL","club",1,371,"un"
"8238",26,474,50,1,"MARK","late",1,371,"un"
"8265",5,9,50,1,"STAIRWAY","stairs",1,371,"rel"
"8266",8,454,50,1,"BULLY","rough",1,371,"rel"
"8268",18,486,50,1,"SHORE","line",1,371,"rel"
"8298",18,324,1050,1,"EMERGENCY","ambulance",1,371,"rel"
"8299",18,492,50,1,"HALT","stop",1,371,"rel"
"8300",26,418,50,1,"DROP","fall",1,371,"rel"
"8301",36,131,1050,1,"MOONLIGHT","night",1,371,"rel"
"8338",5,548,1050,1,"APE","all",1,372,"un"
"8339",26,43,1050,1,"RESPONSE","girl",1,372,"un"
"8373",18,301,1050,1,"STUB","same",1,372,"un"
"8417",2,106,1050,1,"SOFA","bed",1,372,"rel"
"8418",5,143,50,1,"STUCK","mud",1,372,"rel"
"8419",26,462,50,1,"DOWNTOWN","busy",1,372,"rel"
"8420",44,437,50,1,"RIDER","cowboy",1,372,"rel"
"8461",18,123,1050,1,"GENEROUS","give",1,372,"rel"
"8462",18,778,50,1,"PRINCE","princess",1,372,"rel"
"8496",16,823,50,1,"PATIENT","me",1,373,"un"
"8521",5,339,50,1,"CONTRACT","bat",1,373,"un"
"8522",9,159,50,1,"PARK","tax",1,373,"un"
"8524",42,421,50,1,"TAXI","shoes",1,373,"un"
"8548",16,657,50,1,"BOOT","camp",1,373,"rel"
"8550",18,514,50,1,"DRAGON","queen",1,373,"rel"
"8551",26,202,1050,1,"INNOCENT","virgin",1,373,"rel"
"8552",42,209,1050,1,"REPLY","speak",1,373,"rel"
"8582",16,307,1050,1,"GUN","shoot",1,373,"rel"
"8583",18,326,1050,1,"CONNECT","dots",1,373,"rel"
"8584",18,489,50,1,"AWARENESS","alert",1,373,"rel"
"8585",20,239,1050,1,"WELCOME","home",1,373,"rel"
"8633",44,202,1050,1,"VESSEL","fudge",1,374,"un"
"8663",42,133,1050,1,"DOOR","funny",1,374,"un"
"8682",26,332,1050,1,"CHORUS","song",1,374,"rel"
"8711",18,95,1050,1,"SPRAIN","ankle",1,374,"rel"
"8713",26,179,1050,1,"SPRAIN","ankle",1,374,"rel"
"8759",26,498,50,1,"RESERVATION","skill",1,375,"un"
"8760",26,44,1050,1,"CHARGE","safe",1,375,"un"
"8761",27,280,50,1,"RELIGIOUS","lost",1,375,"un"
"8786",26,6,1050,1,"LOWER","chew",1,375,"un"
"8787",26,79,1050,1,"EXPLORER","power",1,375,"un"
"8788",36,638,50,1,"TOMB","cave",1,375,"un"
"8817",18,71,1050,1,"CHEAT","fail",1,375,"rel"
"8818",33,542,1050,1,"RUMOR","talk",1,375,"rel"
"8853",18,743,50,1,"WINDOW","glass",1,375,"rel"
"8854",20,419,50,1,"GLASS","window",1,375,"rel"
"8855",42,29,1050,1,"REFLECTION","mirror",1,375,"rel"
"8856",42,417,50,1,"FITNESS","healthy",1,375,"rel"
"8857",44,18,1050,1,"DAWN","dusk",1,375,"rel"
"8858",47,52,50,1,"TREE","leaf",1,375,"rel"
"8892",16,573,50,1,"WARNING","cop",1,376,"un"
"8893",18,87,1050,1,"SWEAR","pencil",1,376,"un"
"8921",26,294,1050,1,"FAST","friend",1,376,"un"
"8946",7,495,1050,1,"BROKEN","fix",1,376,"rel"
"8948",18,439,50,1,"FRUSTRATION","anxiety",1,376,"rel"
"8950",18,693,50,1,"LAWSUIT","law",1,376,"rel"
"8951",20,76,1050,1,"SEE","hear",1,376,"rel"
"8972",2,280,1050,1,"QUACK","duck",1,376,"rel"
"8973",11,46,50,1,"KIDNEY","bean",1,376,"rel"
"8974",18,483,50,1,"NONE","zero",1,376,"rel"
"8975",18,595,50,1,"FILE","cabinet",1,376,"rel"
"8976",26,317,1050,1,"LISTEN","hear",1,376,"rel"
"8977",26,99,1050,1,"SNOB","bitch",1,376,"rel"
"8979",47,157,50,1,"SINGLE","marry",1,376,"rel"
"9057",18,64,1050,1,"MAD","thing",1,377,"un"
"9094",18,529,50,1,"RANGE","shoot",1,377,"rel"
"9095",18,776,50,1,"BARREL","pickles",1,377,"rel"
"9096",18,217,1050,1,"DART","throw",1,377,"rel"
"9097",36,43,1050,1,"SAUCE","apple",1,377,"rel"
"9098",44,16,1050,1,"DATA","base",1,377,"rel"
"9128",18,348,1050,1,"LANGUAGE","english",1,377,"rel"
"9181",5,591,1050,1,"BOLOGNA","tea",1,378,"un"
"9182",6,101,1050,1,"VISITOR","plan",1,378,"un"
"9184",26,300,1050,1,"ATTITUDE","smell",1,378,"un"
"9185",47,550,1050,1,"SAUCE","body",1,378,"un"
"9186",47,819,1050,1,"STUMBLE","let",1,378,"un"
"9214",18,81,1050,1,"TOPIC","dream",1,378,"un"
"9215",26,26,1050,1,"SECRETARY","wall",1,378,"un"
"9243",5,624,1050,1,"FIND","found",1,378,"rel"
"9244",5,763,1050,1,"PROTECT","secure",1,378,"rel"
"9245",26,36,1050,1,"MAPLE","sugar",1,378,"rel"
"9291",18,224,1050,1,"SELF","me",1,378,"rel"
"9292",18,542,50,1,"ILLNESS","sick",1,378,"rel"
"9293",18,580,50,1,"QUANTITY","amount",1,378,"rel"
"9294",36,19,1050,1,"ALTER","change",1,378,"rel"
"9334",15,63,50,1,"DEPARTMENT","death",1,379,"un"
"9335",18,511,50,1,"VAMPIRE","court",1,379,"un"
"9336",20,134,1050,1,"MARIJUANA","wind",1,379,"un"
"9373",9,62,50,1,"FLOAT","control",1,379,"un"
"9374",18,384,1050,1,"MURDERER","irregular",1,379,"un"
"9413",2,19,1050,1,"HOTTER","summer",1,379,"rel"
"9414",5,765,1050,1,"ICEBERG","lettuce",1,379,"rel"
"9415",15,54,50,1,"COLONEL","general",1,379,"rel"
"9416",18,470,50,1,"ROOF","tile",1,379,"rel"
"9417",42,54,1050,1,"ROOF","tile",1,379,"rel"
"9455",18,127,1050,1,"FURTHER","away",1,379,"rel"
"9456",26,439,50,1,"CELERY","carrot",1,379,"rel"
"9457",36,29,1050,1,"STENCH","smell",1,379,"rel"
"9522",18,671,50,1,"PLUM","weekend",1,380,"un"
"9569",26,70,1050,1,"SPECIAL","weird",1,380,"un"
"9570",42,542,50,1,"EXACT","east",1,380,"un"
"9572",47,663,1050,1,"SLIMY","pimple",1,380,"un"
"9607",3,128,50,1,"SOMETHING","good",1,380,"rel"
"9608",5,755,1050,1,"CHAMPAGNE","beer",1,380,"rel"
"9609",15,16,50,1,"FOOLISH","silly",1,380,"rel"
"9610",26,140,1050,1,"LIVE","happy",1,380,"rel"
"9611",26,162,1050,1,"AROUND","world",1,380,"rel"
"9652",8,458,50,1,"FOUR","five",1,380,"rel"
"9653",22,34,1050,1,"KNOCK","door",1,380,"rel"
"9654",37,79,50,1,"CLAW","cat",1,380,"rel"
"9655",42,126,1050,1,"LUMP","bump",1,380,"rel"
"9720",15,2,50,1,"CONTENT","egg",1,381,"un"
"9721",18,159,1050,1,"VIRGIN","live",1,381,"un"
"9722",26,484,50,1,"COLLECT","real",1,381,"un"
"9774",5,386,50,1,"CIRCUMSTANCE","ruler",1,381,"un"
"9775",8,433,50,1,"DELICATE","one",1,381,"un"
"9777",42,501,50,1,"HUGE","no",1,381,"un"
"9810",16,562,50,1,"DUST","pan",1,381,"rel"
"9811",26,327,1050,1,"ROOSTER","farm",1,381,"rel"
"9845",2,338,1050,1,"RUBBER","band",1,381,"rel"
"9846",3,111,50,1,"WELCOME","home",1,381,"rel"
"9847",7,643,1050,1,"CONDITIONER","shampoo",1,381,"rel"
"9849",26,77,1050,1,"SHEEP","wool",1,381,"rel"
"9851",26,681,50,1,"MONEY","cash",1,381,"rel"
"9852",44,258,1050,1,"GIRL","boy",1,381,"rel"
"9853",45,699,1050,1,"MONASTERY","monk",1,381,"rel"
"9900",5,380,50,1,"SAVIOR","hammer",1,382,"un"
"9901",18,299,1050,1,"DOLLARS","old",1,382,"un"
"9902",18,446,50,1,"SWEETHEART","energy",1,382,"un"
"9933",18,338,1050,1,"PLENTY","thousand",1,382,"un"
"9934",18,370,1050,1,"SALIVA","hoop",1,382,"un"
"9936",18,798,50,1,"DOOR","funny",1,382,"un"
"9937",30,92,1050,1,"THUNDER","done",1,382,"un"
"9939",42,163,1050,1,"COMMUNIST","answer",1,382,"un"
"9940",44,167,1050,1,"BOOK","oyster",0,382,"un"
"9974",8,287,1050,1,"THINK","know",1,382,"rel"
"9975",9,165,50,1,"AROUND","world",1,382,"rel"
"9976",26,651,50,1,"LOYALTY","husband",1,382,"rel"
"10020",21,476,1050,1,"CHAIRPERSON","leader",1,382,"rel"
"10022",33,152,50,1,"QUARTER","dime",1,382,"rel"
"10087",17,3,50,1,"PLANTS","partner",1,383,"un"
"10088",42,423,50,1,"CONDITION","drunk",1,383,"un"
"10121",16,133,1050,1,"TRAUMA","home",1,383,"un"
"10151",3,36,50,1,"CENTRAL","center",1,383,"rel"
"10152",5,564,1050,1,"PASSIVE","active",1,383,"rel"
"10153",7,115,50,1,"DUST","pan",1,383,"rel"
"10154",26,433,50,1,"HAYSTACK","cow",1,383,"rel"
"10196",5,472,1050,1,"BLOCK","brick",1,383,"rel"
"10197",33,545,1050,1,"CORRIDOR","hall",1,383,"rel"
"10233",18,63,1050,1,"TIGER","beach",1,384,"un"
"10235",26,308,1050,1,"SECLUDED","now",1,384,"un"
"10236",33,97,50,1,"MORNING","point",1,384,"un"
"10237",36,754,50,1,"CHANNEL","mine",1,384,"un"
"10238",44,650,50,1,"ACE","length",1,384,"un"
"10261",18,437,50,1,"SMOTHER","pilot",1,384,"un"
"10291",5,771,1050,1,"BIAS","race",1,384,"rel"
"10292",26,443,50,1,"TREAD","float",1,384,"rel"
"10293",47,204,50,1,"INTERESTING","neat",0,384,"rel"
"10327",5,815,1050,1,"LOBE","ear",1,384,"rel"
"10328",15,402,50,1,"PASS","fail",1,384,"rel"
"10329",19,50,50,1,"BEING","human",1,384,"rel"
"10330",27,233,50,1,"LABEL","tag",1,384,"rel"
"10331",47,756,1050,1,"PROVISION","food",1,384,"rel"
"10370",16,213,1050,1,"BASE","hole",1,385,"un"
"10371",16,586,50,1,"SUBTRACT","men",1,385,"un"
"10373",18,189,1050,1,"TIMES","sand",1,385,"un"
"10374",21,474,1050,1,"SEAT","life",1,385,"un"
"10375",21,168,50,1,"DILIGENCE","smile",0,385,"un"
"10376",44,430,50,1,"IRRITATE","day",1,385,"un"
"10414",3,621,1050,1,"FOGGY","wear",1,385,"un"
"10415",5,757,1050,1,"AMBITION","talking",1,385,"un"
"10416",8,361,1050,1,"CURVE","beat",1,385,"un"
"10417",26,254,1050,1,"SPONTANEOUS","doe",1,385,"un"
"10418",30,483,50,1,"BULLETIN","stage",1,385,"un"
"10419",32,80,1050,1,"INTOXICATED","piece",1,385,"un"
"10452",18,637,50,1,"TRUCE","even",1,385,"rel"
"10453",26,415,1050,1,"DILIGENCE","try",1,385,"rel"
"10454",28,235,1050,1,"SECTION","eight",1,385,"rel"
"10455",40,110,1050,1,"REVIVAL","tent",1,385,"rel"
"10504",3,576,1050,1,"FOREVER","always",1,385,"rel"
"10505",19,49,50,1,"TOUCH","feel",1,385,"rel"
"10506",26,436,50,1,"QUACK","duck",1,385,"rel"
"10507",42,135,1050,1,"VILLAIN","bad",1,385,"rel"
"10508",47,646,1050,1,"LOFT","bed",1,385,"rel"
"10557",15,360,50,1,"GUEST","air",1,386,"un"
"10558",18,7,1050,1,"TASTE","achieve",1,386,"un"
"10612",20,20,1050,1,"TABLET","warm",1,386,"un"
"10654",2,435,50,1,"MASON","worker",1,386,"rel"
"10655",3,271,50,1,"STEAL","beg",1,386,"rel"
"10656",7,113,50,1,"DOMINANT","male",1,386,"rel"
"10657",26,333,1050,1,"MATE","wife",1,386,"rel"
"10658",26,149,1050,1,"ICE","pick",1,386,"rel"
"10659",26,326,1050,1,"GOOD","better",1,386,"rel"
"10660",26,509,50,1,"HERD","buffalo",1,386,"rel"
"10718",5,550,1050,1,"STEER","drive",1,386,"rel"
"10719",18,289,1050,1,"HOOT","owl",1,386,"rel"
"10721",33,255,50,1,"HARDY","boys",1,386,"rel"
"10722",35,409,50,1,"MEADOW","field",1,386,"rel"
"10723",47,244,50,1,"TORCH","fire",1,386,"rel"
"10778",18,258,1050,1,"CHAPTER","trash",1,387,"un"
"10780",26,183,1050,1,"BIG","ready",1,387,"un"
"10827",18,138,1050,1,"EXCISE","pan",1,387,"un"
"10828",20,135,1050,1,"LEASE","small",1,387,"un"
"10829",42,757,50,1,"LEND","date",1,387,"un"
"10830",47,717,1050,1,"MANNERS","cleaner",1,387,"un"
"10867",3,65,50,1,"PRODUCER","maker",1,387,"rel"
"10868",47,162,50,1,"SOAK","wash",1,387,"rel"
"10917",8,461,50,1,"AIR","breathe",1,387,"rel"
"10918",9,43,50,1,"BIKE","ride",1,387,"rel"
"10919",18,362,1050,1,"STUDENT","teacher",1,387,"rel"
"10921",19,385,50,1,"OLD","new",1,387,"rel"
"10922",27,430,1050,1,"MUTTON","lamb",1,387,"rel"
"10923",48,192,1050,1,"CUB","bear",1,387,"rel"
"10992",26,107,1050,1,"ECONOMY","find",1,388,"un"
"10993",26,339,1050,1,"VETERAN","plastic",1,388,"un"
"10994",26,180,1050,1,"SUSPECT","sell",1,388,"un"
"11045",15,130,50,1,"AGREE","light",1,388,"un"
"11046",42,144,1050,1,"GROWN","love",1,388,"un"
"11107",5,178,50,1,"TRANSPARENT","tape",1,388,"rel"
"11108",5,742,1050,1,"ATTACH","stick",1,388,"rel"
"11109",16,468,50,1,"WILL","power",1,388,"rel"
"11110",26,117,1050,1,"GEOMETRY","shape",1,388,"rel"
"11111",26,163,1050,1,"CHIPS","potato",1,388,"rel"
"11180",7,811,1050,1,"CROCHET","knit",1,388,"rel"
"11181",10,129,1050,1,"SURFACE","top",1,388,"rel"
"11183",16,827,50,1,"OPPORTUNITY","chance",1,388,"rel"
"11184",18,768,50,1,"DITCH","hole",1,388,"rel"
"11185",18,288,1050,1,"ARIGHT","okay",1,388,"rel"
"11186",19,207,50,1,"COLLEGE","school",1,388,"rel"
"11187",26,222,1050,1,"YOLK","egg",1,388,"rel"
"11188",28,545,50,1,"PRUNE","juice",1,388,"rel"
"11189",36,133,1050,1,"JAW","mouth",1,388,"rel"
"11190",44,427,50,1,"GRADUATE","student",1,388,"rel"
"11273",5,727,1050,1,"SPOTLESS","pot",1,389,"un"
"11274",36,759,50,1,"VOCABULARY","laugh",1,389,"un"
"11318",6,215,1050,1,"BURST","gum",1,389,"un"
"11319",18,158,1050,1,"EXHALE","leg",1,389,"un"
"11320",26,64,1050,1,"DEER","slave",1,389,"un"
"11321",40,142,1050,1,"PERCENT","odd",0,389,"un"
"11377",3,623,1050,1,"STRAIN","back",1,389,"rel"
"11378",16,131,1050,1,"JUSTICE","fair",1,389,"rel"
"11379",18,200,1050,1,"MAPLE","sugar",1,389,"rel"
"11380",26,330,1050,1,"NETWORK","news",1,389,"rel"
"11433",15,63,50,1,"SKETCH","draw",1,389,"rel"
"11434",16,825,50,1,"CARROT","rabbit",1,389,"rel"
"11435",18,391,1050,1,"CURSIVE","writing",1,389,"rel"
"11510",7,637,1050,1,"ANARCHY","worm",1,390,"un"
"11511",15,156,50,1,"CHRISTMAS","sky",1,390,"un"
"11512",18,465,50,1,"CHEW","little",1,390,"un"
"11513",18,61,1050,1,"SECLUDED","now",1,390,"un"
"11514",21,153,50,1,"BACK","enemy",1,390,"un"
"11515",26,95,1050,1,"MOOSE","eye",1,390,"un"
"11516",26,217,1050,1,"TARNISH","heavy",1,390,"un"
"11517",42,162,1050,1,"COUCH","ring",1,390,"un"
"11568",18,677,50,1,"ASS","thirst",1,390,"un"
"11623",5,382,50,1,"PERSONNEL","staff",1,390,"rel"
"11624",18,339,1050,1,"MORAL","values",1,390,"rel"
"11625",44,374,1050,1,"CALL","yell",1,390,"rel"
"11626",47,181,50,1,"SOME","thing",1,390,"rel"
"11683",5,754,1050,1,"SEED","plant",1,390,"rel"
"11684",16,268,1050,1,"COMPONENT","part",1,390,"rel"
"11685",26,600,50,1,"BUBBLE","gum",1,390,"rel"
"11686",35,403,50,1,"MENTAL","health",1,390,"rel"
"11687",45,730,1050,1,"NORTH","south",1,390,"rel"
"11752",3,638,1050,1,"SOUTH","bake",1,391,"un"
"11754",20,15,1050,1,"HELP","funny",1,391,"un"
"11755",26,411,1050,1,"MACARONI","shave",1,391,"un"
"11791",5,491,1050,1,"IRON","plain",1,391,"un"
"11792",18,207,1050,1,"PRECISE","leader",1,391,"un"
"11793",18,369,1050,1,"TREBLE","oil",1,391,"un"
"11842",5,630,1050,1,"SNAIL","shell",1,391,"rel"
"11843",15,196,50,1,"LUCK","fortune",1,391,"rel"
"11844",15,386,50,1,"LOVER","fighter",1,391,"rel"
"11845",18,277,1050,1,"CLEANING","dust",0,391,"rel"
"11847",47,831,1050,1,"LOYAL","TRUE",1,391,"rel"
"11920",7,409,50,1,"TWIST","turn",1,391,"rel"
"11921",9,158,50,1,"PHONE","call",1,391,"rel"
"11922",26,396,1050,1,"CONVINCE","persuade",1,391,"rel"
"12036",5,442,1050,1,"MIDDLE","alone",1,392,"un"
"12037",16,317,1050,1,"NOTHING","hat",1,392,"un"
"12039",26,451,50,1,"BOUNTY","future",1,392,"un"
"12040",26,453,50,1,"ASTRONAUT","climb",1,392,"un"
"12041",26,671,50,1,"KEEPER","dress",1,392,"un"
"12074",26,336,1050,1,"FOREHEAD","hair",1,392,"rel"
"12075",42,19,1050,1,"APPEAL","looks",1,392,"rel"
"12129",5,517,1050,1,"SALOON","bar",1,392,"rel"
"12132",18,239,1050,1,"EARNESTNESS","honesty",1,392,"rel"
"12133",18,164,1050,1,"MEASUREMENT","ruler",0,392,"rel"
"12134",26,51,1050,1,"TULIP","flower",1,392,"rel"
"12135",26,105,1050,1,"SAPPHIRE","blue",1,392,"rel"
"12136",27,798,1050,1,"LIME","lemon",1,392,"rel"
"12137",27,504,1050,1,"GANG","group",1,392,"rel"
"12194",5,376,50,1,"REAR","out",1,393,"un"
"12195",18,681,50,1,"THERMOMETER","eat",1,393,"un"
"12196",26,54,1050,1,"DECENCY","map",1,393,"un"
"12197",33,130,50,1,"FAT","tag",1,393,"un"
"12238",18,37,1050,1,"LOWER","chew",1,393,"un"
"12239",26,279,1050,1,"MONKEY","wash",1,393,"un"
"12240",26,627,50,1,"JUMP","man",1,393,"un"
"12241",33,596,1050,1,"CHARACTERISTI","look",1,393,"un"
"12242",42,414,1050,1,"QUENCH","know",1,393,"un"
"12296",7,105,50,1,"CONVICT","killer",1,393,"rel"
"12297",16,411,1050,1,"DONE","gone",1,393,"rel"
"12298",16,802,50,1,"QUART","oil",1,393,"rel"
"12299",18,267,1050,1,"RAINY","weather",1,393,"rel"
"12300",36,88,1050,1,"STALL","hold",1,393,"rel"
"12301",36,193,1050,1,"ASIA","minor",0,393,"rel"
"12302",47,602,1050,1,"WIPE","ass",1,393,"rel"
"12303",47,645,1050,1,"BOLT","close",1,393,"rel"
"12358",5,375,50,1,"PARTICIPATE","join",1,393,"rel"
"12360",16,105,1050,1,"PAN","pot",1,393,"rel"
"12361",18,124,1050,1,"NOON","lunch",1,393,"rel"
"12362",19,25,50,1,"ALTER","change",1,393,"rel"
"12432",15,9,50,1,"SADDLE","boys",1,394,"un"
"12433",26,87,1050,1,"ADOLESCENT","gain",1,394,"un"
"12434",36,735,50,1,"COMMITTEE","loud",1,394,"un"
"12489",7,54,50,1,"SUCCESS","find",1,394,"un"
"12490",7,260,50,1,"COAST","actor",1,394,"un"
"12491",18,419,50,1,"RUB","gamble",0,394,"un"
"12545",7,178,50,1,"HEEL","toe",1,394,"rel"
"12546",18,188,1050,1,"RIDE","bicycle",1,394,"rel"
"12547",26,9,1050,1,"SAVIOR","taste",1,394,"rel"
"12548",26,89,1050,1,"WRENCH","monkey",1,394,"rel"
"12549",26,113,1050,1,"SHRIMP","lobster",1,394,"rel"
"12550",47,785,1050,1,"BLESS","you",1,394,"rel"
"12635",18,501,50,1,"THREAT","scare",1,394,"rel"
"12636",26,325,1050,1,"HUT","straw",1,394,"rel"
"12715",47,606,1050,1,"VIOLIN","hurt",0,395,"un"
"12780",5,428,1050,1,"WIN","fast",1,395,"un"
"12782",9,710,1050,1,"ART","cheese",0,395,"un"
"12783",16,294,1050,1,"LAPEL","seek",1,395,"un"
"12784",18,117,1050,1,"SENTRY","higher",1,395,"un"
"12785",18,507,50,1,"FLOWER","fiction",1,395,"un"
"12787",44,514,50,1,"FINISH","brother",1,395,"un"
"12849",2,104,1050,1,"DISBELIEF","alive",1,395,"rel"
"12850",3,584,1050,1,"SWATTER","bat",1,395,"rel"
"12851",5,655,1050,1,"CUDDLE","boy",1,395,"rel"
"12852",18,359,1050,1,"EVICT","apartment",1,395,"rel"
"12853",26,38,1050,1,"RIDE","bicycle",1,395,"rel"
"12939",3,257,50,1,"LASTING","long",1,395,"rel"
"12940",16,414,1050,1,"COFFEE","tea",1,395,"rel"
"12942",26,223,1050,1,"DISASTER","earthquake",1,395,"rel"
"12943",32,90,1050,1,"FACTORY","worker",1,395,"rel"
"12944",32,95,1050,1,"CHAIR","table",1,395,"rel"
"12945",32,206,1050,1,"SMELL","taste",1,395,"rel"
"12946",33,458,1050,1,"BACKBONE","spine",1,395,"rel"
"12947",47,641,1050,1,"GUYS","girls",1,395,"rel"
"12948",47,742,1050,1,"BLOUSE","shirt",1,395,"rel"
"13020",20,136,1050,1,"WATCH","plane",1,396,"un"
"13077",22,67,1050,1,"INTRODUCE","sky",1,396,"un"
"13078",47,187,50,1,"CHUNK","christ",1,396,"un"
"13079",47,789,1050,1,"COMMANDER","feel",1,396,"un"
"13135",5,115,50,1,"CRUST","pizza",1,396,"rel"
"13136",5,469,1050,1,"ACCUSE","court",1,396,"rel"
"13137",5,730,1050,1,"BAKER","cake",1,396,"rel"
"13138",16,91,1050,1,"BROKEN","fix",1,396,"rel"
"13139",26,202,1050,1,"HANGER","coat",1,396,"rel"
"13140",26,767,50,1,"MEDIUM","rare",1,396,"rel"
"13141",33,363,50,1,"ARMS","hug",1,396,"rel"
"13142",47,744,1050,1,"FINAL","last",1,396,"rel"
"13243",10,416,50,1,"SLURP","drink",1,396,"rel"
"13244",18,317,1050,1,"SQUEAK","mouse",1,396,"rel"
"13245",18,558,50,1,"BACKBONE","spine",1,396,"rel"
"13246",26,212,1050,1,"CREDIT","card",1,396,"rel"
"13247",42,593,50,1,"SAPPHIRE","blue",1,396,"rel"
"13329",3,288,50,1,"WATCH","plane",1,397,"un"
"13330",8,457,50,1,"LET","item",1,397,"un"
"13331",12,131,1050,1,"AMOUNT","past",1,397,"un"
"13332",16,785,50,1,"INSIDE","baby",1,397,"un"
"13333",26,502,50,1,"DOUBT","temple",0,397,"un"
"13334",27,526,1050,1,"HAIRCUT","land",1,397,"un"
"13335",42,138,1050,1,"COMEDIAN","twelve",1,397,"un"
"13385",18,354,1050,1,"FRISK","act",1,397,"un"
"13386",18,451,50,1,"MASTER","large",1,397,"un"
"13387",42,778,50,1,"REGION","loving",1,397,"un"
"13388",44,435,50,1,"STEREOTYPE","virgin",1,397,"un"
"13448",5,334,50,1,"SCRUB","dishes",1,397,"rel"
"13449",5,385,50,1,"SNOW","ski",1,397,"rel"
"13452",26,201,1050,1,"PLUTO","dog",1,397,"rel"
"13453",42,232,1050,1,"VEGETABLE","food",1,397,"rel"
"13454",47,362,50,1,"ENGAGE","together",1,397,"rel"
"13510",5,330,50,1,"FAME","fortune",1,397,"rel"
"13512",16,627,50,1,"TRICYCLE","bicycle",1,397,"rel"
"13514",26,216,1050,1,"HELIUM","balloon",1,397,"rel"
"13515",33,9,50,1,"TOE","foot",1,397,"rel"
"13516",42,764,50,1,"SELF","me",1,397,"rel"
"13517",44,142,1050,1,"ATLAS","map",1,397,"rel"
"13518",45,629,1050,1,"PITCHFORK","hay",1,397,"rel"
"13590",5,730,1050,1,"SHELF","even",1,398,"un"
"13591",5,713,1050,1,"REVENGE","crime",1,398,"un"
"13592",9,81,50,1,"MOOSE","eye",1,398,"un"
"13593",16,266,1050,1,"SECURITY","there",1,398,"un"
"13594",26,523,50,1,"SEARCH","web",1,398,"un"
"13595",27,462,1050,1,"DUSTPAN","door",1,398,"un"
"13596",44,480,50,1,"INTEGRATE","hard",1,398,"un"
"13650",7,338,50,1,"HARVEST","wrong",1,398,"un"
"13651",9,195,50,1,"WEIRD","spoon",1,398,"un"
"13652",16,87,1050,1,"MYSTERY","eat",1,398,"un"
"13653",18,564,50,1,"DOMINATE","killer",1,398,"un"
"13654",18,751,50,1,"PARKWAY","pull",1,398,"un"
"13655",26,174,1050,1,"JAR","spaghetti",1,398,"un"
"13656",26,111,1050,1,"PASTE","superman",1,398,"un"
"13657",26,177,1050,1,"MIRAGE","want",1,398,"un"
"13658",26,220,1050,1,"HATCHET","peace",1,398,"un"
"13659",26,520,50,1,"SYRUP","brain",1,398,"un"
"13660",27,790,1050,1,"RIGHTEOUS","soap",1,398,"un"
"13661",37,62,50,1,"CREDIT","decision",0,398,"un"
"13662",42,577,50,1,"REFUSE","evil",1,398,"un"
"13721",2,145,1050,1,"UPSTREAM","water",1,398,"rel"
"13722",16,770,50,1,"CREATION","make",1,398,"rel"
"13723",18,212,1050,1,"NURSE","patient",1,398,"rel"
"13724",18,297,1050,1,"ARTIST","draw",1,398,"rel"
"13725",48,85,1050,1,"POETRY","poem",1,398,"rel"
"13797",16,448,50,1,"CABINET","kitchen",1,398,"rel"
"13798",18,791,50,1,"JOURNEY","trip",1,398,"rel"
"13799",26,138,1050,1,"BURIAL","death",1,398,"rel"
"13800",33,151,50,1,"COWGIRL","cowboy",1,398,"rel"
"13801",33,305,50,1,"ATTRACT","like",1,398,"rel"
"13802",42,431,50,1,"STUDENT","teacher",1,398,"rel"
"13896",18,534,50,1,"WEB","floor",1,399,"un"
"13897",21,39,50,1,"EXPRESSION","vine",1,399,"un"
"13898",26,536,50,1,"RIBS","marriage",1,399,"un"
"13899",40,627,50,1,"MOTORCYCLE","kiss",1,399,"un"
"13958",5,528,1050,1,"DIG","fox",1,399,"un"
"13959",18,72,1050,1,"RIGID","belief",1,399,"un"
"13961",26,557,50,1,"EXPLANATION","sorry",1,399,"un"
"13962",36,721,50,1,"MISCHIEF","try",1,399,"un"
"14020",5,705,1050,1,"SON","dad",1,399,"rel"
"14021",7,127,50,1,"COUPLE","date",1,399,"rel"
"14023",16,347,1050,1,"METEORITE","star",1,399,"rel"
"14024",18,629,50,1,"SLEEVE","short",1,399,"rel"
"14025",18,825,50,1,"TUNNEL","under",1,399,"rel"
"14026",42,475,50,1,"GAG","puke",1,399,"rel"
"14027",48,377,1050,1,"ANALYSIS","data",1,399,"rel"
"14096",2,344,1050,1,"HERE","there",1,399,"rel"
"14097",5,222,50,1,"GREASE","oil",1,399,"rel"
"14098",5,328,50,1,"CLAW","cat",1,399,"rel"
"14099",5,3,50,1,"TOPIC","subject",1,399,"rel"
"14100",15,133,50,1,"ALONE","lonely",1,399,"rel"
"14101",15,124,50,1,"GORGEOUS","beautiful",1,399,"rel"
"14102",18,103,1050,1,"TELLER","bank",1,399,"rel"
"14104",30,257,1050,1,"GREASE","oil",1,399,"rel"
"14193",5,414,50,1,"MORTGAGE","toy",1,400,"un"
"14194",16,297,1050,1,"SUPERVISOR","snow",1,400,"un"
"14195",19,53,50,1,"PAY","turtle",1,400,"un"
"14196",26,228,1050,1,"CORE","early",1,400,"un"
"14197",26,466,50,1,"FEATURE","boots",1,400,"un"
"14198",26,91,1050,1,"APRON","tense",1,400,"un"
"14261",16,688,50,1,"SORRY","town",1,400,"un"
"14262",18,357,1050,1,"CLOWN","unknown",1,400,"un"
"14263",18,198,1050,1,"APPLIANCE","bacon",1,400,"un"
"14264",18,816,50,1,"WIDTH","learn",1,400,"un"
"14265",42,138,1050,1,"WHO","rice",1,400,"un"
"14315",5,300,50,1,"AMUSE","joke",1,400,"rel"
"14316",5,326,50,1,"NUT","cracker",1,400,"rel"
"14317",5,567,1050,1,"SPANK","cry",1,400,"rel"
"14318",16,610,50,1,"OVEN","heat",1,400,"rel"
"14319",16,728,50,1,"CODE","red",1,400,"rel"
"14320",18,315,1050,1,"DONATION","gift",1,400,"rel"
"14321",18,687,50,1,"SOBER","normal",1,400,"rel"
"14322",18,797,50,1,"SHAVE","beard",1,400,"rel"
"14323",18,159,1050,1,"MASON","worker",1,400,"rel"
"14324",19,51,50,1,"BRACES","young",1,400,"rel"
"14325",45,504,1050,1,"NITROGEN","oxygen",1,400,"rel"
"14388",2,72,1050,1,"YOUTH","young",1,400,"rel"
"14389",3,612,1050,1,"GRAIN","wheat",1,400,"rel"
"14390",3,126,50,1,"SHOW","tell",1,400,"rel"
"14391",3,560,1050,1,"FOG","mist",1,400,"rel"
"14392",6,639,50,1,"LEAN","skinny",1,400,"rel"
"14393",7,280,50,1,"REPRODUCE","sex",1,400,"rel"
"14395",15,371,50,1,"SHAPE","mold",1,400,"rel"
"14396",18,420,50,1,"HONEST","truth",1,400,"rel"
"14397",26,60,1050,1,"GUITAR","string",1,400,"rel"
"14398",42,311,1050,1,"MAGAZINE","book",1,400,"rel"
"14399",42,317,1050,1,"RUBBER","band",1,400,"rel"
"14400",44,225,1050,1,"LATCH","key",1,400,"rel"
"14401",48,61,1050,1,"PAN","pot",1,400,"rel"
"14455",5,25,50,1,"MASON","break",1,401,"un"
"14456",9,109,50,1,"BRACELET","polite",1,401,"un"
"14457",16,659,50,1,"SIDEWALK","teach",1,401,"un"
"14458",26,428,50,1,"WIND","heaven",1,401,"un"
"14515",3,388,50,1,"DATE","raw",1,401,"un"
"14516",18,94,1050,1,"VAST","easy",1,401,"un"
"14517",19,212,50,1,"HAUL","team",1,401,"un"
"14580",5,299,50,1,"FABLE","lesson",1,401,"rel"
"14581",5,615,1050,1,"MOOSE","deer",1,401,"rel"
"14582",6,440,50,1,"PLANT","bush",1,401,"rel"
"14583",9,626,1050,1,"HAYSTACK","cow",0,401,"rel"
"14584",18,235,1050,1,"GULL","freedom",1,401,"rel"
"14586",20,293,1050,1,"PLAYGROUND","slide",1,401,"rel"
"14587",23,53,50,1,"NOSE","blow",1,401,"rel"
"14588",42,96,1050,1,"CREAM","milk",1,401,"rel"
"14589",42,427,50,1,"HEAT","florida",1,401,"rel"
"14685",3,260,50,1,"FIGHT","fist",1,401,"rel"
"14686",3,436,1050,1,"QUIZ","test",1,401,"rel"
"14687",7,167,50,1,"RAZOR","sharp",1,401,"rel"
"14688",7,199,50,1,"TORCH","fire",1,401,"rel"
"14689",15,82,50,1,"SHATTER","break",1,401,"rel"
"14690",16,593,50,1,"DEATH","life",1,401,"rel"
"14691",16,597,50,1,"TELL","say",1,401,"rel"
"14693",26,335,1050,1,"UNIFORM","nurse",1,401,"rel"
"14694",26,446,50,1,"NOW","later",1,401,"rel"
"14695",30,340,1050,1,"POLICY","rule",1,401,"rel"
"14696",44,205,1050,1,"QUILL","pen",1,401,"rel"
"14808",18,256,1050,1,"EXCEDRIN","money",1,402,"un"
"14809",26,347,1050,1,"OVAL","basketball",1,402,"un"
"14810",32,91,1050,1,"CRYSTAL","cuddle",1,402,"un"
"14811",33,135,50,1,"SPEND","purpose",1,402,"un"
"14812",42,19,1050,1,"SNOW","fruit",1,402,"un"
"14813",42,218,1050,1,"RYE","nervous",1,402,"un"
"14814",42,603,50,1,"BREATH","job",1,402,"un"
"14815",44,428,50,1,"FUN","poem",1,402,"un"
"14816",47,820,1050,1,"TREATMENT","eight",0,402,"un"
"14886",16,365,1050,1,"PARCEL","ask",1,402,"un"
"14887",16,392,1050,1,"GREEK","can",1,402,"un"
"14888",18,700,50,1,"PHILOSOPHY","need",1,402,"un"
"14889",26,90,1050,1,"PEBBLE","bucket",1,402,"un"
"14890",44,429,50,1,"LINGERIE","attic",1,402,"un"
"14968",5,364,50,1,"RELEASE","grab",1,402,"rel"
"14969",7,112,50,1,"QUART","oil",1,402,"rel"
"14970",10,611,50,1,"CAUSE","why",1,402,"rel"
"14971",14,39,1050,1,"GOLD","value",1,402,"rel"
"14972",26,85,1050,1,"MEND","break",1,402,"rel"
"14973",33,89,50,1,"OVER","turn",1,402,"rel"
"14974",33,737,1050,1,"BOLOGNA","meat",1,402,"rel"
"14975",42,533,50,1,"ONION","hamburger",1,402,"rel"
"14976",42,789,50,1,"MORTGAGE","rent",1,402,"rel"
"15058",6,439,50,1,"LACE","shoelace",1,402,"rel"
"15059",15,361,50,1,"NUTS","crazy",1,402,"rel"
"15060",16,687,50,1,"RENT","apartment",1,402,"rel"
"15061",18,345,1050,1,"SIX","seven",1,402,"rel"
"15062",18,462,50,1,"CLAIM","insurance",0,402,"rel"
"15063",29,801,1050,1,"HIGH","low",1,402,"rel"
"15064",33,404,50,1,"CAUTION","danger",1,402,"rel"
"15066",44,15,1050,1,"KEY","lock",1,402,"rel"
"15181",18,256,1050,1,"SNEAKERS","tire",1,403,"un"
"15182",26,134,1050,1,"IVORY","uncle",1,403,"un"
"15183",42,190,1050,1,"WEB","floor",1,403,"un"
"15184",42,547,50,1,"FREEZE","joke",1,403,"un"
"15256",5,213,50,1,"WHERE","baby",1,403,"un"
"15257",9,33,50,1,"MOTHER","male",1,403,"un"
"15258",42,141,1050,1,"LACE","fish",1,403,"un"
"15259",42,110,1050,1,"CAMPING","four",1,403,"un"
"15333",9,258,50,1,"VICE","president",1,403,"rel"
"15334",16,576,50,1,"RAT","cat",1,403,"rel"
"15335",16,585,50,1,"SAILING","fishing",1,403,"rel"
"15336",36,425,50,1,"CONTENT","book",1,403,"rel"
"15439",2,457,50,1,"LISTEN","hear",1,403,"rel"
"15440",2,602,50,1,"WOMEN","men",1,403,"rel"
"15441",5,363,50,1,"KNOCK","door",1,403,"rel"
"15443",16,778,50,1,"WINNER","loser",1,403,"rel"
"15444",20,508,50,1,"NOUN","verb",1,403,"rel"
"15445",26,260,1050,1,"SUB","sandwich",1,403,"rel"
"15446",32,365,1050,1,"IN","out",1,403,"rel"
"15447",48,339,1050,1,"TALL","short",1,403,"rel"
"15566",18,466,50,1,"PERCENTAGE","round",1,404,"un"
"15567",26,30,1050,1,"STROKE","forgive",1,404,"un"
"15568",26,267,1050,1,"BEETLE","pie",1,404,"un"
"15569",26,487,50,1,"RULER","child",1,404,"un"
"15570",26,624,50,1,"FLOOD","stamp",1,404,"un"
"15571",33,161,50,1,"MARGIN","public",1,404,"un"
"15658",16,621,50,1,"SQUINT","mother",1,404,"un"
"15660",26,80,1050,1,"WAR","subject",1,404,"un"
"15661",42,494,50,1,"TOPIC","dream",1,404,"un"
"15724",3,154,50,1,"MATURE","age",1,404,"rel"
"15725",8,250,1050,1,"IDENTICAL","exact",1,404,"rel"
"15726",12,233,1050,1,"MONGOOSE","duck",1,404,"rel"
"15728",26,463,50,1,"SPOTLESS","spot",1,404,"rel"
"15729",33,268,50,1,"ANNOY","sister",1,404,"rel"
"15810",20,24,1050,1,"SUMMER","winter",1,404,"rel"
"15811",27,458,1050,1,"FRILL","lace",1,404,"rel"
"15812",27,535,1050,1,"ANGEL","heaven",1,404,"rel"
"15813",33,19,50,1,"BALL","bat",1,404,"rel"
"15814",36,28,1050,1,"COAST","beach",1,404,"rel"
"15816",40,177,1050,1,"USA","america",1,404,"rel"
"15817",42,576,50,1,"PARADISE","island",1,404,"rel"
"15818",45,275,50,1,"WITH","together",1,404,"rel"
"15939",18,44,1050,1,"REFLECT","opening",1,405,"un"
"15940",24,286,1050,1,"SADDLE","boys",1,405,"un"
"15941",27,284,50,1,"TRADE","action",1,405,"un"
"15942",33,239,50,1,"CLAMP","school",1,405,"un"
"15943",42,193,1050,1,"DYNASTY","value",1,405,"un"
"16030",3,304,50,1,"HEAVEN","dust",1,405,"un"
"16031",5,211,50,1,"GUARDIAN","female",1,405,"un"
"16033",18,488,50,1,"SCHOOL","brick",1,405,"un"
"16034",18,658,50,1,"ILLEGAL","sun",1,405,"un"
"16035",26,274,1050,1,"DISHES","length",1,405,"un"
"16036",28,202,1050,1,"PERCEPTION","values",1,405,"un"
"16115",3,245,50,1,"DRUG","cocaine",1,405,"rel"
"16116",5,182,50,1,"RYE","wheat",1,405,"rel"
"16117",5,383,50,1,"AWESOME","cool",1,405,"rel"
"16118",18,641,50,1,"COPY","machine",1,405,"rel"
"16119",18,68,1050,1,"BUTTON","push",1,405,"rel"
"16120",22,240,1050,1,"THERMOMETER","hot",1,405,"rel"
"16121",44,679,50,1,"ENOUGH","done",1,405,"rel"
"16217",5,806,1050,1,"PARKING","lot",1,405,"rel"
"16218",7,531,1050,1,"REJECT","accept",1,405,"rel"
"16219",9,429,1050,1,"COMBINATION","mixture",1,405,"rel"
"16220",16,557,50,1,"EXAMPLE","sample",1,405,"rel"
"16221",20,632,50,1,"MORE","less",1,405,"rel"
"16222",24,283,1050,1,"SASH","belt",1,405,"rel"
"16223",26,28,1050,1,"COOLER","wine",1,405,"rel"
"16224",26,200,1050,1,"LITTER","cats",1,405,"rel"
"16225",27,762,1050,1,"ROCK","stone",1,405,"rel"
"16226",27,539,1050,1,"CLOSING","opening",1,405,"rel"
"16227",32,88,1050,1,"SINGLE","marry",1,405,"rel"
"16228",36,162,1050,1,"AGE","old",1,405,"rel"
"16229",44,107,1050,1,"DEMON","devil",0,405,"rel"
"16230",47,50,50,1,"FURY","anger",1,405,"rel"
"16326",18,186,1050,1,"ATTITUDE","smell",1,406,"un"
"16327",26,197,1050,1,"BLUEBERRY","thief",1,406,"un"
"16328",26,376,1050,1,"MOMENT","closed",1,406,"un"
"16329",33,204,50,1,"BREATH","job",1,406,"un"
"16330",42,345,1050,1,"FUNCTION","tomato",1,406,"un"
"16331",47,446,1050,1,"LIMOUSINE","full",1,406,"un"
"16418",3,132,50,1,"SELFISH","dive",1,406,"un"
"16419",5,654,1050,1,"POSITION","cash",1,406,"un"
"16420",15,25,50,1,"PROMISE","magic",1,406,"un"
"16421",16,95,1050,1,"BELOW","road",1,406,"un"
"16423",27,525,1050,1,"HOE","doll",1,406,"un"
"16424",36,115,1050,1,"AMERICAN","grandma",0,406,"un"
"16511",9,254,50,1,"ANNOY","sister",1,406,"rel"
"16512",18,827,50,1,"THOUGHT","time",1,406,"rel"
"16513",26,49,1050,1,"SEAT","table",1,406,"rel"
"16514",26,143,1050,1,"BONE","chicken",1,406,"rel"
"16515",28,301,1050,1,"TRUCK","driver",1,406,"rel"
"16516",28,499,50,1,"STAND","fall",1,406,"rel"
"16517",33,598,1050,1,"SURGEON","surgery",1,406,"rel"
"16604",5,716,1050,1,"HULL","boat",1,406,"rel"
"16606",9,628,1050,1,"KITCHEN","cook",1,406,"rel"
"16607",18,343,1050,1,"COMPONENTS","parts",1,406,"rel"
"16608",18,690,50,1,"TAN","dark",1,406,"rel"
"16609",21,446,1050,1,"HUNDRED","thousand",1,406,"rel"
"16610",26,69,1050,1,"TENSION","stress",1,406,"rel"
"16611",26,215,1050,1,"WAREHOUSE","storage",1,406,"rel"
"16612",26,178,1050,1,"WIN","lose",1,406,"rel"
"16613",26,212,1050,1,"FAMINE","hunger",1,406,"rel"
"16614",26,547,50,1,"DEVELOPMENT","growth",1,406,"rel"
"16616",42,806,50,1,"SAUCER","cup",1,406,"rel"
"16617",42,31,1050,1,"SOCIETY","people",1,406,"rel"
"16718",5,216,50,1,"THIN","run",1,407,"un"
"16719",7,352,50,1,"STRAIN","cup",0,407,"un"
"16720",8,27,1050,1,"LAWYER","gloves",1,407,"un"
"16721",16,436,50,1,"POTATO","trade",1,407,"un"
"16722",18,110,1050,1,"HARLEY","town",1,407,"un"
"16723",26,132,1050,1,"PRECIPICE","cool",1,407,"un"
"16724",26,299,1050,1,"BRACELET","polite",1,407,"un"
"16725",27,361,50,1,"PEST","coke",1,407,"un"
"16726",30,273,1050,1,"WRINKLE","try",1,407,"un"
"16727",42,778,50,1,"HAZE","wheat",1,407,"un"
"16728",47,757,1050,1,"NAUSEA","shine",1,407,"un"
"16803",3,263,50,1,"MINOR","sharp",1,407,"un"
"16804",5,141,50,1,"SWAP","boys",1,407,"un"
"16805",14,246,1050,1,"WIN","fast",1,407,"un"
"16806",18,163,1050,1,"HUGE","no",1,407,"un"
"16807",32,588,50,1,"MYSTERY","eat",1,407,"un"
"16808",42,468,50,1,"PRESTIGE","check",1,407,"un"
"16809",47,130,50,1,"PEN","weak",1,407,"un"
"16881",5,473,1050,1,"CUSTOMER","service",1,407,"rel"
"16882",11,25,50,1,"CONTENT","book",1,407,"rel"
"16883",16,716,50,1,"SUITCASE","luggage",1,407,"rel"
"16884",26,127,1050,1,"EXCITED","bored",1,407,"rel"
"16885",42,488,50,1,"ESSENCE","meaning",1,407,"rel"
"16984",3,619,1050,1,"SURVIVE","live",1,407,"rel"
"16985",5,257,50,1,"APPLIANCE","stove",1,407,"rel"
"16986",6,680,50,1,"PARK","tree",1,407,"rel"
"16987",15,422,1050,1,"HEAVEN","hell",1,407,"rel"
"16988",26,352,1050,1,"MARSH","swamp",1,407,"rel"
"16989",33,520,1050,1,"TAME","wild",1,407,"rel"
"16990",42,37,1050,1,"PRINCE","princess",1,407,"rel"
"16991",44,553,50,1,"DRILL","bit",0,407,"rel"
"17101",2,222,1050,1,"SCRAP","mile",1,408,"un"
"17102",2,37,1050,1,"MOLTEN","church",1,408,"un"
"17103",9,53,50,1,"LOCAL","mother",1,408,"un"
"17104",18,695,50,1,"PIANO","question",1,408,"un"
"17105",20,568,50,1,"INSTRUCT","motion",1,408,"un"
"17106",26,176,1050,1,"DANGEROUS","pizza",1,408,"un"
"17107",33,18,50,1,"ICEBERG","game",1,408,"un"
"17108",33,159,50,1,"EXPERT","come",1,408,"un"
"17109",42,165,1050,1,"METAL","problem",1,408,"un"
"17111",47,328,50,1,"FADE","seven",1,408,"un"
"17167",27,537,1050,1,"PILE","tiger",1,408,"un"
"17168",36,54,1050,1,"FLOOR","looks",1,408,"un"
"17254",2,15,1050,1,"ISOLATED","room",1,408,"rel"
"17256",9,98,50,1,"YES","positive",1,408,"rel"
"17257",10,192,1050,1,"MOWER","cut",1,408,"rel"
"17259",26,117,1050,1,"LEOPARD","tiger",1,408,"rel"
"17261",27,245,50,1,"GRAVE","die",1,408,"rel"
"17262",42,536,50,1,"SAVIOR","taste",1,408,"rel"
"17339",2,104,1050,1,"POSITION","place",1,408,"rel"
"17340",5,681,1050,1,"LEVER","pull",1,408,"rel"
"17341",5,534,1050,1,"REPEAT","again",1,408,"rel"
"17342",18,656,50,1,"ALLOW","let",1,408,"rel"
"17343",18,753,50,1,"TERROR","fear",1,408,"rel"
"17344",18,315,1050,1,"HANDLE","care",1,408,"rel"
"17345",20,459,50,1,"LAY","down",1,408,"rel"
"17346",26,137,1050,1,"ASLEEP","awake",1,408,"rel"
"17347",27,756,1050,1,"CRAYOLA","crayon",1,408,"rel"
"17348",33,20,50,1,"MEN","women",1,408,"rel"
"17349",33,807,1050,1,"ESTEEM","self",1,408,"rel"
"17456",32,420,50,1,"COTTON","state",1,409,"un"
"17457",34,144,1050,1,"RULER","child",1,409,"un"
"17558",26,282,1050,1,"MYTH","clock",1,409,"un"
"17559",26,362,1050,1,"HUNDRED","puzzle",1,409,"un"
"17636",2,128,1050,1,"DISORDER","order",1,409,"rel"
"17637",3,575,1050,1,"STEW","soup",1,409,"rel"
"17638",16,553,50,1,"ANOTHER","more",1,409,"rel"
"17639",18,472,50,1,"CAGE","wire",1,409,"rel"
"17640",26,315,1050,1,"ROACH","motel",1,409,"rel"
"17641",26,368,1050,1,"VICTOR","loser",1,409,"rel"
"17642",33,259,50,1,"HAY","stack",1,409,"rel"
"17735",27,413,50,1,"GRAIN","wheat",1,409,"rel"
"17736",33,207,50,1,"SELECTION","choice",1,409,"rel"
"17737",33,290,50,1,"POCKET","jeans",1,409,"rel"
"17870",9,63,50,1,"GREATEST","always",1,410,"un"
"17871",18,295,1050,1,"PRECIPICE","cool",1,410,"un"
"17872",26,664,50,1,"SERIOUS","pretty",1,410,"un"
"17873",27,608,1050,1,"WHEAT","you",1,410,"un"
"17954",5,789,1050,1,"CHECKING","snow",1,410,"un"
"17955",26,21,1050,1,"BROIL","instrument",1,410,"un"
"17956",27,475,1050,1,"FEET","fake",1,410,"un"
"17957",32,292,1050,1,"HONEYMOON","juice",1,410,"un"
"17958",33,258,50,1,"RIGID","belief",1,410,"un"
"17959",33,17,50,1,"HINT","faint",1,410,"un"
"17960",35,458,1050,1,"CUCUMBER","tea",1,410,"un"
"17961",42,447,50,1,"HOMEWORK","father",1,410,"un"
"18040",2,43,1050,1,"SPOTLESS","spot",1,410,"rel"
"18042",5,774,1050,1,"WHAT","where",1,410,"rel"
"18044",18,524,50,1,"BATHROOM","bedroom",1,410,"rel"
"18045",21,460,1050,1,"FAIRY","story",1,410,"rel"
"18046",26,231,1050,1,"LOG","cabin",1,410,"rel"
"18047",26,409,1050,1,"RADIATOR","warm",1,410,"rel"
"18048",27,170,50,1,"REFRAIN","talking",1,410,"rel"
"18050",42,384,1050,1,"LAWSUIT","law",1,410,"rel"
"18167",5,517,1050,1,"GOING","gone",1,410,"rel"
"18168",9,328,50,1,"ATTRACT","like",1,410,"rel"
"18169",19,9,50,1,"VILLAGE","town",1,410,"rel"
"18170",19,10,50,1,"SLOPE","ski",1,410,"rel"
"18172",26,148,1050,1,"FALL","spring",1,410,"rel"
"18173",28,815,50,1,"TASK","job",1,410,"rel"
"18174",36,448,50,1,"POSTAGE","stamp",1,410,"rel"
"18175",48,79,1050,1,"CLOTHES","wear",1,410,"rel"
"18269",2,303,1050,1,"SUNDAY","home",1,411,"un"
"18270",5,749,1050,1,"ROTTEN","listen",1,411,"un"
"18271",6,660,50,1,"ANCIENT","sight",1,411,"un"
"18272",8,311,1050,1,"FAITHFUL","grow",1,411,"un"
"18273",18,829,50,1,"WEIGH","closing",1,411,"un"
"18368",9,257,50,1,"MONKEY","wash",1,411,"un"
"18369",11,38,50,1,"MISCHIEF","try",1,411,"un"
"18370",18,616,50,1,"FIRST","saw",1,411,"un"
"18371",42,481,50,1,"REPAIR","move",1,411,"un"
"18463",14,121,1050,1,"CUSTOMER","service",1,411,"rel"
"18464",18,58,1050,1,"SPAN","wide",0,411,"rel"
"18466",18,591,50,1,"BREAST","chest",1,411,"rel"
"18467",26,258,1050,1,"SIBLING","brother",1,411,"rel"
"18468",47,729,1050,1,"ORCHID","plant",1,411,"rel"
"18590",3,420,1050,1,"GIRL","boy",1,411,"rel"
"18591",5,743,1050,1,"STALE","bread",1,411,"rel"
"18592",14,10,1050,1,"VAST","large",1,411,"rel"
"18593",16,421,50,1,"GANGSTER","mob",1,411,"rel"
"18594",18,482,50,1,"CORRIDOR","hall",1,411,"rel"
"18595",18,625,50,1,"INFERIOR","superior",1,411,"rel"
"18596",26,53,1050,1,"MELLOW","yellow",1,411,"rel"
"18597",26,72,1050,1,"FOLLY","mistake",1,411,"rel"
"18598",27,501,1050,1,"SEASHORE","shell",1,411,"rel"
"18599",35,59,50,1,"GOOSE","gander",1,411,"rel"
"18601",44,2,1050,1,"LAPEL","collar",1,411,"rel"
"18724",5,409,50,1,"HOUND","city",1,412,"un"
"18725",7,783,1050,1,"CLOCKWISE","bad",1,412,"un"
"18727",17,70,50,1,"FLOOD","stamp",1,412,"un"
"18729",20,19,1050,1,"ATOMIC","crab",1,412,"un"
"18730",26,32,1050,1,"ERASER","cheat",1,412,"un"
"18731",26,604,50,1,"ACCUSE","pants",1,412,"un"
"18732",33,634,1050,1,"RESERVATION","skill",1,412,"un"
"18733",42,574,50,1,"PRECIPICE","cool",1,412,"un"
"18734",42,18,1050,1,"TACTFUL","something",1,412,"un"
"18834",5,389,50,1,"MAGNIFY","trade",1,412,"un"
"18835",5,607,1050,1,"ATTORNEY","walk",1,412,"un"
"18836",16,805,50,1,"SNOT","grab",1,412,"un"
"18837",18,593,50,1,"GROWN","love",1,412,"un"
"18838",18,600,50,1,"DECREASE","rules",1,412,"un"
"18839",48,240,1050,1,"DEGREE","cold",1,412,"un"
"18921",5,343,50,1,"ASSISTANCE","helper",1,412,"rel"
"18922",5,388,50,1,"SHOVEL","sand",1,412,"rel"
"18926",26,221,1050,1,"OXYGEN","breathe",1,412,"rel"
"18927",30,523,50,1,"PLUM","pudding",1,412,"rel"
"18928",42,401,1050,1,"RANGE","shoot",1,412,"rel"
"18929",42,477,50,1,"COMMUNICATION","radio",1,412,"rel"
"18930",47,507,1050,1,"TOWEL","cloth",1,412,"rel"
"19059",16,292,1050,1,"FRIENDS","family",1,412,"rel"
"19060",18,302,1050,1,"BREEZEWAY","walkway",1,412,"rel"
"19061",18,213,1050,1,"GLIDE","slide",1,412,"rel"
"19062",19,203,50,1,"BOWLING","ball",1,412,"rel"
"19063",26,586,50,1,"DOWNSTAIRS","upstairs",1,412,"rel"
"19064",27,763,1050,1,"INDOORS","outdoors",1,412,"rel"
"19065",33,739,1050,1,"KITCHEN","cook",1,412,"rel"
"19066",34,416,1050,1,"RECKLESS","driving",1,412,"rel"
"19067",36,778,50,1,"LAUGH","cry",1,412,"rel"
"19068",42,765,50,1,"DIAMETER","circle",1,412,"rel"
"19189",18,379,1050,1,"RACE","failure",1,413,"un"
"19190",36,122,1050,1,"FRAGRANCE","congress",1,413,"un"
"19191",47,40,50,1,"GUILT","ride",1,413,"un"
"19192",48,27,1050,1,"IRREGULAR","plate",1,413,"un"
"19296",5,588,1050,1,"USUAL","steel",1,413,"un"
"19297",18,757,50,1,"MOAT","snake",1,413,"un"
"19298",26,198,1050,1,"CIRCUS","minute",1,413,"un"
"19299",26,481,50,1,"NERD","west",1,413,"un"
"19300",44,80,1050,1,"ARENA","hell",1,413,"un"
"19301",44,463,50,1,"PIMPLE","furniture",1,413,"un"
"19302",44,76,1050,1,"TELL","purple",1,413,"un"
"19395",5,752,1050,1,"COMPANION","partner",1,413,"rel"
"19396",16,674,50,1,"BREAK","smash",1,413,"rel"
"19397",18,498,50,1,"CRITICIZE","argue",1,413,"rel"
"19398",18,603,50,1,"SUGAR","coffee",1,413,"rel"
"19400",42,753,50,1,"SCHEME","idea",1,413,"rel"
"19521",2,408,1050,1,"BRUNETTE","blonde",1,413,"rel"
"19522",3,525,1050,1,"FUEL","gas",1,413,"rel"
"19523",7,802,1050,1,"PROVISION","food",1,413,"rel"
"19524",14,82,1050,1,"REPEAT","again",1,413,"rel"
"19525",16,542,50,1,"VOMIT","puke",1,413,"rel"
"19526",18,527,50,1,"ATTORNEY","lawyer",1,413,"rel"
"19527",21,442,1050,1,"TRUSTWORTHY","friend",0,413,"rel"
"19529",26,458,50,1,"UNTRUE","FALSE",1,413,"rel"
"19530",26,179,1050,1,"ADORABLE","cute",1,413,"rel"
"19531",45,323,50,1,"WARRIOR","fighter",1,413,"rel"
"19644",5,96,50,1,"JUVENILE","sheets",1,414,"un"
"19645",5,213,50,1,"CELLAR","hair",1,414,"un"
"19646",7,14,50,1,"PROFESSOR","age",1,414,"un"
"19647",18,540,50,1,"RINSE","winter",1,414,"un"
"19648",19,33,50,1,"HURRY","boss",1,414,"un"
"19649",26,128,1050,1,"SYNAGOGUE","night",1,414,"un"
"19650",26,766,50,1,"ANKLE","way",1,414,"un"
"19652",42,584,50,1,"DOLLARS","old",1,414,"un"
"19744",5,793,1050,1,"HANDLE","her",1,414,"un"
"19747",26,403,1050,1,"OWN","yard",1,414,"un"
"19748",26,615,50,1,"SHOWER","number",1,414,"un"
"19751",44,686,50,1,"COFFEE","life",1,414,"un"
"19752",45,322,50,1,"DIVIDE","good",1,414,"un"
"19843",11,41,50,1,"FRAIL","thin",1,414,"rel"
"19844",15,214,50,1,"WORTH","nothing",1,414,"rel"
"19845",16,217,1050,1,"ANALYSIS","data",1,414,"rel"
"19846",17,73,50,1,"ROTTEN","spoiled",1,414,"rel"
"19847",18,96,1050,1,"ROW","eggs",1,414,"rel"
"19848",20,6,1050,1,"BANKER","bank",1,414,"rel"
"19849",26,631,50,1,"OWNER","seller",1,414,"rel"
"19850",33,405,50,1,"CHEAT","fail",1,414,"rel"
"19851",33,27,50,1,"EXISTENCE","being",1,414,"rel"
"19953",3,677,1050,1,"VILLAGE","town",1,414,"rel"
"19954",18,645,50,1,"PINT","quart",1,414,"rel"
"19955",20,238,1050,1,"COUGH","cold",1,414,"rel"
"19956",26,300,1050,1,"LOOSE","tight",1,414,"rel"
"19957",26,485,50,1,"BRUNETTE","blonde",1,414,"rel"
"19958",30,485,50,1,"MICROWAVE","oven",1,414,"rel"
"19959",33,310,50,1,"STATUE","liberty",1,414,"rel"
"19960",37,81,50,1,"HESITATE","wait",1,414,"rel"
"20086",6,52,1050,1,"APPROVAL","pavement",1,415,"un"
"20087",16,789,50,1,"NOTIFY","english",1,415,"un"
"20089",26,207,1050,1,"EXCEDRIN","money",1,415,"un"
"20090",27,538,1050,1,"TEARS","woman",1,415,"un"
"20091",42,33,1050,1,"BLENDER","patience",1,415,"un"
"20191",3,581,1050,1,"COCKY","wet",1,415,"un"
"20192",9,326,50,1,"CARING","neat",0,415,"un"
"20194",16,574,50,1,"WEAVE","mouth",1,415,"un"
"20196",20,369,1050,1,"DEFINITION","off",1,415,"un"
"20197",26,400,1050,1,"WARRIOR","slow",1,415,"un"
"20198",36,64,1050,1,"CONTRACTOR","help",1,415,"un"
"20199",42,578,50,1,"WARMTH","ketchup",1,415,"un"
"20298",3,450,1050,1,"LICENSE","driving",1,415,"rel"
"20299",5,788,1050,1,"GOLD","value",1,415,"rel"
"20300",8,425,50,1,"PHYSICS","motion",1,415,"rel"
"20301",8,469,50,1,"DISINTEGRATE","vanish",1,415,"rel"
"20302",9,194,50,1,"CHORUS","song",1,415,"rel"
"20303",9,419,1050,1,"RESEARCH","paper",0,415,"rel"
"20304",16,505,50,1,"HARM","evil",1,415,"rel"
"20305",18,410,1050,1,"SCHEME","idea",0,415,"rel"
"20306",18,147,1050,1,"FOREHEAD","hair",1,415,"rel"
"20307",21,31,50,1,"FAT","lady",1,415,"rel"
"20308",26,630,50,1,"NUCLEAR","bomb",1,415,"rel"
"20309",35,40,50,1,"REBEL","wild",1,415,"rel"
"20310",36,696,50,1,"EARLY","bird",1,415,"rel"
"20311",40,118,1050,1,"RAM","sheep",1,415,"rel"
"20312",40,565,50,1,"NUN","father",1,415,"rel"
"20313",42,777,50,1,"GRIEF","tears",1,415,"rel"
"20416",6,39,1050,1,"OCEAN","sea",1,415,"rel"
"20417",7,337,50,1,"PERCEPTION","sight",1,415,"rel"
"20418",8,410,1050,1,"STRATEGY","plan",1,415,"rel"
"20420",18,664,50,1,"GOVERNOR","state",1,415,"rel"
"20421",21,24,50,1,"THANKS","welcome",1,415,"rel"
"20422",26,397,1050,1,"SWAP","trade",1,415,"rel"
"20423",27,358,50,1,"PANEL","wood",1,415,"rel"
"20424",36,39,1050,1,"MANNERS","polite",1,415,"rel"
"20425",36,191,1050,1,"EVEN","odd",1,415,"rel"
"20426",40,421,50,1,"WORSE","better",1,415,"rel"
"20427",42,237,1050,1,"INFERIOR","superior",1,415,"rel"
"20527",3,261,50,1,"STUMP","billy",1,416,"un"
"20528",6,368,1050,1,"OVER","wire",1,416,"un"
"20530",18,824,50,1,"TRAVEL","cheap",1,416,"un"
"20531",33,366,50,1,"SUMMARY","new",1,416,"un"
"20532",42,534,50,1,"WHAT","building",1,416,"un"
"20608",5,808,1050,1,"SELF","class",1,416,"un"
"20609",6,545,50,1,"TRAIT","build",1,416,"un"
"20611",18,519,50,1,"SUBTRACTION","metal",1,416,"un"
"20612",18,654,50,1,"FIGHTER","space",1,416,"un"
"20613",19,63,50,1,"TWIN","short",1,416,"un"
"20614",19,111,50,1,"MASK","neck",1,416,"un"
"20615",21,311,50,1,"AWARENESS","goal",0,416,"un"
"20616",26,2,1050,1,"CASHEW","sword",1,416,"un"
"20617",26,437,50,1,"FREAK","christmas",1,416,"un"
"20618",26,640,50,1,"TUNE","before",1,416,"un"
"20619",47,512,1050,1,"RATIONALIZE","lock",1,416,"un"
"20703",6,306,1050,1,"ESCAPE","exit",1,416,"rel"
"20705",19,32,50,1,"COLD","snow",1,416,"rel"
"20706",26,224,1050,1,"ENRAGE","calm",1,416,"rel"
"20707",26,369,1050,1,"PICKLE","dill",1,416,"rel"
"20709",33,831,1050,1,"FUSS","whine",1,416,"rel"
"20710",35,48,50,1,"MATURE","age",1,416,"rel"
"20799",5,99,50,1,"CREATE","make",1,416,"rel"
"20800",7,386,50,1,"JOCK","strap",1,416,"rel"
"20802",10,402,1050,1,"REFLECTION","mirror",1,416,"rel"
"20803",26,196,1050,1,"LEARN","teach",1,416,"rel"
"20804",27,330,50,1,"INQUIRE","ask",1,416,"rel"
"20805",27,505,1050,1,"LETTUCE","tomato",1,416,"rel"
"20806",33,682,1050,1,"MAJOR","minor",1,416,"rel"
"20807",33,158,50,1,"DENIAL","refuse",1,416,"rel"
"20808",42,576,50,1,"BEAN","green",1,416,"rel"
"20908",7,372,50,1,"BELLY","drop",1,417,"un"
"20909",7,609,1050,1,"CONSCIENCE","trip",1,417,"un"
"20911",18,26,1050,1,"HAZE","wheat",1,417,"un"
"21016",5,663,1050,1,"TAME","plate",1,417,"un"
"21017",7,114,50,1,"CONCLUSION","smell",1,417,"un"
"21018",7,682,1050,1,"SYSTEM","beer",1,417,"un"
"21019",16,540,50,1,"HIKING","hate",1,417,"un"
"21020",16,590,50,1,"ATTENTION","job",1,417,"un"
"21022",22,295,1050,1,"WHERE","baby",1,417,"un"
"21023",26,564,50,1,"NATURAL","booze",1,417,"un"
"21024",27,797,1050,1,"JAWS","stripe",1,417,"un"
"21025",42,568,50,1,"TOPPING","bend",1,417,"un"
"21119",15,363,50,1,"TRANQUIL","easy",1,417,"rel"
"21120",18,58,1050,1,"THIMBLE","thumb",1,417,"rel"
"21121",26,356,1050,1,"WAGON","toy",1,417,"rel"
"21122",33,7,50,1,"PORT","ship",1,417,"rel"
"21123",44,104,1050,1,"JEALOUSY","feeling",1,417,"rel"
"21245",3,637,1050,1,"TAG","grab",1,417,"rel"
"21246",6,36,1050,1,"SCHOOL","work",1,417,"rel"
"21247",7,315,50,1,"FORM","shape",1,417,"rel"
"21248",11,67,50,1,"MISS","hit",1,417,"rel"
"21249",12,603,50,1,"BORING","dull",1,417,"rel"
"21250",15,109,50,1,"ROOST","chicken",1,417,"rel"
"21251",15,123,50,1,"TRACTOR","trailer",1,417,"rel"
"21252",15,135,50,1,"TELEVISION","radio",1,417,"rel"
"21253",17,72,50,1,"ALPHABET","letters",1,417,"rel"
"21254",18,673,50,1,"TUMOR","cancer",1,417,"rel"
"21255",18,143,1050,1,"RIGHTEOUSNESS","good",1,417,"rel"
"21256",19,62,50,1,"PRISONER","jail",1,417,"rel"
"21257",19,243,50,1,"DISCOVERY","find",1,417,"rel"
"21258",20,345,1050,1,"SEASHORE","shell",1,417,"rel"
"21259",26,218,1050,1,"SAUCER","cup",1,417,"rel"
"21260",26,319,1050,1,"BLUR","vision",1,417,"rel"
"21261",28,223,1050,1,"POST","office",1,417,"rel"
"21262",35,192,50,1,"NUMBER","one",1,417,"rel"
"21263",42,45,1050,1,"SURFACE","top",1,417,"rel"
"21264",44,209,1050,1,"SALAD","lettuce",1,417,"rel"
"21265",44,17,1050,1,"NAP","sleep",1,417,"rel"
"21266",44,523,50,1,"MUTTON","lamb",1,417,"rel"
"21375",3,134,50,1,"FLUSH","american",1,418,"un"
"21376",7,255,50,1,"COMPLIMENT","brave",1,418,"un"
"21377",16,793,50,1,"NAME","owl",1,418,"un"
"21378",18,350,1050,1,"COMPETENCE","down",1,418,"un"
"21379",18,724,50,1,"GOD","finish",1,418,"un"
"21381",28,213,1050,1,"MARIJUANA","wind",1,418,"un"
"21382",33,15,50,1,"STEEPLE","tie",0,418,"un"
"21383",35,71,50,1,"OVEN","sad",1,418,"un"
"21384",44,649,50,1,"EXECUTIVE","strong",1,418,"un"
"21489",2,758,50,1,"GRAVEL","chair",1,418,"un"
"21490",5,530,1050,1,"TUXEDO","growth",1,418,"un"
"21491",15,199,50,1,"SECURE","maid",1,418,"un"
"21492",16,398,1050,1,"STREET","health",1,418,"un"
"21597",3,432,1050,1,"VICTORY","winner",1,418,"rel"
"21598",5,241,50,1,"IGNORE","mean",1,418,"rel"
"21599",5,230,50,1,"SUMMARY","end",1,418,"rel"
"21600",7,30,50,1,"CAKE","bake",1,418,"rel"
"21601",16,29,1050,1,"DEAF","what",1,418,"rel"
"21602",18,547,50,1,"VEGETABLE","food",1,418,"rel"
"21603",18,686,50,1,"MOWER","cut",1,418,"rel"
"21605",36,159,1050,1,"DECISION","decide",1,418,"rel"
"21606",36,462,50,1,"SALES","store",1,418,"rel"
"21607",42,580,50,1,"SUPPOSE","assume",1,418,"rel"
"21744",3,429,1050,1,"JESUS","christ",1,418,"rel"
"21745",6,697,50,1,"PAT","touch",1,418,"rel"
"21746",10,373,1050,1,"RIP","tear",1,418,"rel"
"21747",16,447,50,1,"CUSS","swear",1,418,"rel"
"21748",16,125,1050,1,"TALL","short",1,418,"rel"
"21750",18,634,50,1,"SOCK","shoe",1,418,"rel"
"21751",26,828,50,1,"PLEASE","thanks",1,418,"rel"
"21752",36,498,50,1,"FAKE","real",1,418,"rel"
"21754",47,159,50,1,"SOIL","dirt",1,418,"rel"
"21883",5,272,50,1,"BATHROOM","thread",1,419,"un"
"21884",16,428,50,1,"OVERVIEW","away",1,419,"un"
"21885",16,558,50,1,"GALLON","good",1,419,"un"
"21887",18,554,50,1,"HAUNT","glasses",1,419,"un"
"21888",47,73,50,1,"SMASH","choose",1,419,"un"
"22007",5,691,1050,1,"SNEAK","sick",1,419,"un"
"22008",6,415,1050,1,"SURFACE","people",1,419,"un"
"22009",14,13,1050,1,"HANDLE","her",1,419,"un"
"22010",16,748,50,1,"FLAT","down",1,419,"un"
"22011",33,91,50,1,"HOMEWORK","father",1,419,"un"
"22012",42,579,50,1,"HARMFUL","desert",1,419,"un"
"22013",47,799,1050,1,"POSTAGE","above",1,419,"un"
"22125",2,798,50,1,"KEYS","chain",1,419,"rel"
"22126",8,8,1050,1,"AMOUNT","lot",1,419,"rel"
"22127",9,113,50,1,"CLOSE","near",1,419,"rel"
"22128",15,131,50,1,"COURAGE","bravery",1,419,"rel"
"22129",15,149,50,1,"MEDAL","award",1,419,"rel"
"22130",18,347,1050,1,"THIN","small",1,419,"rel"
"22131",19,146,50,1,"STAND","fall",1,419,"rel"
"22132",19,403,50,1,"FRIGHT","ghost",1,419,"rel"
"22133",26,156,1050,1,"IMPORTANT","major",1,419,"rel"
"22134",27,792,1050,1,"RIDER","cowboy",1,419,"rel"
"22135",33,14,50,1,"UNCLEAR","fog",1,419,"rel"
"22136",36,561,50,1,"PUT","away",1,419,"rel"
"22275",2,136,1050,1,"MAGAZINE","book",1,419,"rel"
"22276",2,589,50,1,"BURST","bubble",1,419,"rel"
"22277",5,374,50,1,"CHOCOLATE","candy",1,419,"rel"
"22278",5,452,1050,1,"FRENCH","fries",1,419,"rel"
"22279",6,57,1050,1,"STATION","train",1,419,"rel"
"22280",18,402,1050,1,"BURST","bubble",1,419,"rel"
"22281",18,617,50,1,"ATTEND","go",1,419,"rel"
"22282",20,523,50,1,"LATCH","key",1,419,"rel"
"22283",26,455,50,1,"HAT","head",1,419,"rel"
"22284",27,643,1050,1,"MUMMY","dad",1,419,"rel"
"22285",28,285,1050,1,"DOORBELL","ring",1,419,"rel"
"22286",36,92,1050,1,"HARSH","mean",1,419,"rel"
"22287",48,250,1050,1,"MOIST","wet",1,419,"rel"
"22446",2,588,50,1,"PARADE","arrow",1,420,"un"
"22447",5,684,1050,1,"FLING","bedroom",1,420,"un"
"22448",16,196,1050,1,"FAUCET","around",1,420,"un"
"22450",16,99,1050,1,"BOOKBAG","people",1,420,"un"
"22451",18,348,1050,1,"ALMANAC","devil",0,420,"un"
"22453",36,790,50,1,"INSIGHT","sun",1,420,"un"
"22454",40,654,50,1,"ELEPHANT","cute",1,420,"un"
"22455",48,115,1050,1,"GALAXY","sweat",1,420,"un"
"22551",2,449,50,1,"PUDDING","stiff",1,420,"un"
"22552",15,68,50,1,"UNDERWEAR","girl",1,420,"un"
"22553",26,205,1050,1,"OREGANO","nut",1,420,"un"
"22554",26,299,1050,1,"EXIT","reaction",1,420,"un"
"22661",2,56,1050,1,"BOG","hog",1,420,"rel"
"22663",6,629,50,1,"LEGS","shave",1,420,"rel"
"22665",26,238,1050,1,"NAUSEOUS","stomach",1,420,"rel"
"22666",26,289,1050,1,"STOVE","kitchen",1,420,"rel"
"22811",5,320,50,1,"SHOWER","clean",1,420,"rel"
"22813",9,107,50,1,"POLICEMAN","cop",1,420,"rel"
"22814",18,685,50,1,"CHART","graph",1,420,"rel"
"22815",26,625,50,1,"POSITION","place",1,420,"rel"
"22816",27,754,1050,1,"COBWEB","spider",1,420,"rel"
"22817",30,679,50,1,"IMPACT","crash",1,420,"rel"
"22818",35,51,50,1,"BEGINNER","novice",1,420,"rel"
"22819",48,828,50,1,"MASK","face",1,420,"rel"
"22973",9,147,50,1,"FAT","tag",1,421,"un"
"22974",16,299,1050,1,"OFFICER","ballet",1,421,"un"
"22976",26,203,1050,1,"AX","daily",1,421,"un"
"22977",44,684,50,1,"EMPLOYMENT","reaction",1,421,"un"
"22978",45,735,1050,1,"CURSE","storm",1,421,"un"
"23076",3,159,50,1,"TABLET","warm",1,421,"un"
"23077",5,766,1050,1,"MEANINGFUL","feeling",1,421,"un"
"23078",8,97,1050,1,"RUSH","partner",1,421,"un"
"23079",12,105,1050,1,"BRAT","speak",1,421,"un"
"23080",16,670,50,1,"GENE","closed",1,421,"un"
"23081",18,828,50,1,"NINE","you",1,421,"un"
"23084",48,356,1050,1,"SYNOPSIS","dad",1,421,"un"
"23184",2,146,1050,1,"HERD","buffalo",1,421,"rel"
"23185",3,432,1050,1,"LUNG","cancer",1,421,"rel"
"23186",3,91,50,1,"BRAVADO","great",1,421,"rel"
"23187",5,158,50,1,"POUNCE","hit",1,421,"rel"
"23188",5,790,1050,1,"ANNOUNCE","marriage",1,421,"rel"
"23189",6,646,50,1,"MOMENT","one",1,421,"rel"
"23190",10,37,1050,1,"SHORE","line",1,421,"rel"
"23192",16,558,50,1,"MINIMUM","low",1,421,"rel"
"23193",18,228,1050,1,"MEDIEVAL","armor",1,421,"rel"
"23194",40,15,1050,1,"CLERK","person",1,421,"rel"
"23195",42,446,50,1,"WED","thursday",1,421,"rel"
"23196",42,299,1050,1,"UP","elevator",1,421,"rel"
"23197",42,444,50,1,"COOK","raw",1,421,"rel"
"23327",3,583,1050,1,"LICK","tongue",1,421,"rel"
"23328",3,763,1050,1,"QUEST","journey",1,421,"rel"
"23329",5,227,50,1,"DAD","mom",1,421,"rel"
"23330",7,335,50,1,"GIFT","present",1,421,"rel"
"23331",15,369,50,1,"GROW","tall",1,421,"rel"
"23332",16,488,50,1,"ARMOR","knight",1,421,"rel"
"23333",16,652,50,1,"MASK","face",1,421,"rel"
"23334",17,45,50,1,"PRO","con",1,421,"rel"
"23335",18,366,1050,1,"OBSTACLE","course",1,421,"rel"
"23336",18,679,50,1,"LUMP","bump",1,421,"rel"
"23337",19,73,50,1,"SURVIVE","live",1,421,"rel"
"23339",35,27,50,1,"DISTANCE","far",1,421,"rel"
"23340",35,715,1050,1,"INTOXICATED","drunk",1,421,"rel"
"23474",5,111,50,1,"KNITTING","leave",1,422,"un"
"23475",5,468,1050,1,"POWDER","milk",1,422,"un"
"23476",8,482,50,1,"FREEZER","bat",1,422,"un"
"23477",10,380,1050,1,"SPIT","fat",1,422,"un"
"23478",15,73,50,1,"CLIFF","angel",1,422,"un"
"23479",15,275,50,1,"AVERAGE","maker",1,422,"un"
"23480",16,221,1050,1,"PENNY","stop",1,422,"un"
"23481",18,246,1050,1,"FIND","hungry",1,422,"un"
"23482",18,271,1050,1,"RUDE","key",1,422,"un"
"23483",18,678,50,1,"BANDANNA","feel",0,422,"un"
"23484",19,438,1050,1,"ELEVATOR","lots",1,422,"un"
"23485",20,141,1050,1,"BELIEF","low",1,422,"un"
"23486",26,244,1050,1,"LEMON","believe",1,422,"un"
"23487",26,752,50,1,"THROUGH","long",1,422,"un"
"23488",36,511,50,1,"NATION","tree",1,422,"un"
"23489",42,504,50,1,"HER","computer",1,422,"un"
"23601",6,693,50,1,"PRODUCT","country",1,422,"un"
"23602",16,298,1050,1,"DISAGREEMENT","bit",1,422,"un"
"23603",18,272,1050,1,"RAISIN","clue",1,422,"un"
"23716",6,369,1050,1,"COWBOY","boots",1,422,"rel"
"23717",7,23,50,1,"HEADBAND","exercise",1,422,"rel"
"23718",9,491,1050,1,"HUG","arms",0,422,"rel"
"23719",16,577,50,1,"HURRY","slow",1,422,"rel"
"23720",18,300,1050,1,"CAUSE","why",1,422,"rel"
"23722",18,458,50,1,"TEXT","expensive",1,422,"rel"
"23723",18,335,1050,1,"BALLOT","elect",0,422,"rel"
"23724",18,628,50,1,"MAILBOX","flag",1,422,"rel"
"23725",19,15,50,1,"WELL","sick",1,422,"rel"
"23726",26,448,50,1,"FUND","dollars",1,422,"rel"
"23727",26,68,1050,1,"FURRY","rabbit",1,422,"rel"
"23728",42,411,1050,1,"PASTURE","grass",1,422,"rel"
"23729",42,532,50,1,"HAY","stack",1,422,"rel"
"23730",44,409,1050,1,"PRICE","amount",0,422,"rel"
"23732",45,196,50,1,"TAR","roof",1,422,"rel"
"23733",45,342,50,1,"GREED","hate",1,422,"rel"
"23867",2,814,50,1,"RIGHTEOUSNESS","good",1,422,"rel"
"23868",6,657,50,1,"PUDDING","chocolate",1,422,"rel"
"23869",7,396,50,1,"IN","out",1,422,"rel"
"23870",8,405,1050,1,"MORON","idiot",1,422,"rel"
"23871",15,115,50,1,"FEET","toes",1,422,"rel"
"23872",17,7,50,1,"MONOTONOUS","boring",1,422,"rel"
"23873",26,414,1050,1,"NOON","lunch",1,422,"rel"
"23874",26,82,1050,1,"SAINT","angel",1,422,"rel"
"23875",33,181,50,1,"BINDER","folder",1,422,"rel"
"23876",45,631,1050,1,"EXPLORER","adventure",1,422,"rel"
"24048",2,587,50,1,"TIMES","sand",1,423,"un"
"24049",3,692,1050,1,"HEM","brain",1,423,"un"
"24050",5,316,50,1,"BUTTON","doll",1,423,"un"
"24051",5,712,1050,1,"LEAD","order",1,423,"un"
"24052",8,139,1050,1,"FEEBLE","wild",1,423,"un"
"24053",9,679,1050,1,"BARRIER","ice",1,423,"un"
"24054",14,400,1050,1,"HOME","talk",1,423,"un"
"24055",18,407,1050,1,"ADJOURN","light",1,423,"un"
"24056",22,66,1050,1,"MORTGAGE","toy",1,423,"un"
"24057",27,287,50,1,"CRUNCHY","foresight",1,423,"un"
"24059",42,503,50,1,"WAGE","stain",1,423,"un"
"24060",44,211,1050,1,"CHINESE","bread",1,423,"un"
"24158",5,242,50,1,"NOTICE","string",1,423,"un"
"24159",18,190,1050,1,"FEMALE","perfect",1,423,"un"
"24160",26,293,1050,1,"STEEP","jelly",1,423,"un"
"24161",26,428,50,1,"CLAW","glue",1,423,"un"
"24162",26,430,50,1,"CIGAR","south",1,423,"un"
"24163",27,196,50,1,"DISGRACE","jungle",1,423,"un"
"24164",33,203,50,1,"MEDICAL","clown",1,423,"un"
"24165",42,556,50,1,"SOCKS","sad",1,423,"un"
"24166",47,510,1050,1,"PEDAL","found",1,423,"un"
"24303",3,645,1050,1,"CITY","state",1,423,"rel"
"24304",3,804,1050,1,"DEPARTMENT","head",1,423,"rel"
"24305",5,210,50,1,"WASP","bee",1,423,"rel"
"24306",5,587,1050,1,"ROCKS","mountain",1,423,"rel"
"24308",18,276,1050,1,"PIT","hell",1,423,"rel"
"24309",27,356,50,1,"MINK","fox",1,423,"rel"
"24311",33,811,1050,1,"WORD","letter",1,423,"rel"
"24312",42,399,1050,1,"SHELL","clam",1,423,"rel"
"24451",5,381,50,1,"WIDTH","length",1,423,"rel"
"24452",5,512,1050,1,"ART","paint",1,423,"rel"
"24453",15,643,1050,1,"HEAR","listen",1,423,"rel"
"24454",16,787,50,1,"RAZOR","sharp",1,423,"rel"
"24455",18,1,1050,1,"THRONE","king",1,423,"rel"
"24456",20,214,1050,1,"HAPPENING","now",1,423,"rel"
"24457",21,466,1050,1,"MIGHT","maybe",0,423,"rel"
"24458",27,765,1050,1,"GENE","pool",1,423,"rel"
"24459",42,26,1050,1,"TERROR","fear",1,423,"rel"
"24460",42,104,1050,1,"SLY","fox",1,423,"rel"
"24614",5,604,1050,1,"LIT","object",1,424,"un"
"24615",7,613,1050,1,"WISDOM","beef",1,424,"un"
"24616",9,329,50,1,"FINANCIAL","window",1,424,"un"
"24618",16,482,50,1,"COOL","lake",1,424,"un"
"24619",18,596,50,1,"SCRUB","road",1,424,"un"
"24620",20,418,50,1,"SONIC","camp",1,424,"un"
"24621",21,475,1050,1,"CROWD","radio",1,424,"un"
"24622",26,515,50,1,"NUT","motorcycle",1,424,"un"
"24623",42,416,50,1,"PAYMENT","mustache",1,424,"un"
"24712",5,650,1050,1,"POND","dark",1,424,"un"
"24713",14,273,1050,1,"PREMISES","moon",1,424,"un"
"24716",18,236,1050,1,"STAIRS","wind",1,424,"un"
"24717",18,244,1050,1,"SONNET","candle",0,424,"un"
"24718",19,26,50,1,"CHAIR","coffee",1,424,"un"
"24720",26,291,1050,1,"RAKE","prisoner",1,424,"un"
"24721",26,551,50,1,"ORGANIZE","flop",1,424,"un"
"24723",28,712,50,1,"THIEF","box",1,424,"un"
"24724",33,203,50,1,"TAXI","shoes",1,424,"un"
"24725",40,819,50,1,"MUTTON","faith",1,424,"un"
"24825",2,119,1050,1,"HEAVY","weight",1,424,"rel"
"24826",5,464,1050,1,"LOCATION","home",1,424,"rel"
"24827",16,52,1050,1,"STUDY","work",1,424,"rel"
"24828",16,554,50,1,"GRIZZLY","scary",1,424,"rel"
"24829",18,321,1050,1,"POWDER","face",1,424,"rel"
"24830",18,270,1050,1,"SLUM","city",1,424,"rel"
"24831",18,329,1050,1,"LIVE","happy",1,424,"rel"
"24832",19,45,50,1,"TERRIBLE","two",1,424,"rel"
"24833",20,461,50,1,"RESPECT","parent",1,424,"rel"
"24834",26,723,50,1,"PITY","shame",1,424,"rel"
"24835",33,258,50,1,"SHEET","white",1,424,"rel"
"24837",44,1,1050,1,"PROTEIN","egg",1,424,"rel"
"24967",2,672,50,1,"WHITE","black",1,424,"rel"
"24968",6,564,50,1,"WAR","peace",1,424,"rel"
"24971",20,403,1050,1,"UNSEEN","hidden",1,424,"rel"
"24972",21,40,50,1,"DAUGHTER","son",1,424,"rel"
"24973",26,252,1050,1,"CHEMISTRY","science",1,424,"rel"
"24974",26,535,50,1,"DRESSING","salad",1,424,"rel"
"24975",44,61,1050,1,"TUPPERWARE","plastic",1,424,"rel"
"25121",5,361,50,1,"REPLY","log",1,425,"un"
"25122",6,654,50,1,"EXCHANGE","anger",1,425,"un"
"25123",16,512,50,1,"BRAND","call",1,425,"un"
"25124",21,36,50,1,"ARTIST","box",1,425,"un"
"25125",28,566,50,1,"BOTTLE","zoo",1,425,"un"
"25126",42,47,1050,1,"FANGS","television",1,425,"un"
"25127",42,68,1050,1,"RECOGNITION","office",1,425,"un"
"25128",42,236,1050,1,"ONCE","alcohol",1,425,"un"
"25247",8,427,50,1,"VENUS","cure",1,425,"un"
"25248",15,270,50,1,"BEFORE","new",1,425,"un"
"25249",16,599,50,1,"SWEET","chief",1,425,"un"
"25250",16,126,1050,1,"FRATERNITY","problem",1,425,"un"
"25251",18,543,50,1,"TONE","hard",1,425,"un"
"25252",26,276,1050,1,"CHINA","cab",1,425,"un"
"25253",42,559,50,1,"SKILLER","donkey",1,425,"un"
"25378",5,733,1050,1,"EVIL","nice",1,425,"rel"
"25379",6,427,50,1,"CLAMP","tool",1,425,"rel"
"25381",16,697,50,1,"CABOOSE","tail",1,425,"rel"
"25382",18,484,50,1,"UP","elevator",1,425,"rel"
"25383",18,570,50,1,"SECRET","deodorant",1,425,"rel"
"25385",29,309,50,1,"SPANK","cry",1,425,"rel"
"25386",36,532,50,1,"SPIN","circle",1,425,"rel"
"25387",44,432,50,1,"HARP","angel",1,425,"rel"
"25527",2,243,1050,1,"RETREAT","back",1,425,"rel"
"25528",6,257,1050,1,"ESCARGOT","snail",1,425,"rel"
"25529",8,352,1050,1,"HEAVEN","hell",1,425,"rel"
"25530",15,199,50,1,"LODGE","cabin",1,425,"rel"
"25531",15,126,50,1,"ALLEGIANCE","pledge",1,425,"rel"
"25532",15,409,50,1,"PLAIN","simple",1,425,"rel"
"25533",15,631,1050,1,"SURVEY","questions",1,425,"rel"
"25534",18,75,1050,1,"TOGETHER","apart",1,425,"rel"
"25535",20,107,1050,1,"CUSHION","couch",1,425,"rel"
"25536",28,333,1050,1,"CORPORATION","business",1,425,"rel"
"25538",47,218,50,1,"BLADE","knife",1,425,"rel"
"25708",6,752,50,1,"DULL","dirt",1,426,"un"
"25709",27,494,1050,1,"BOARD","person",1,426,"un"
"25710",27,562,1050,1,"VISIT","fix",1,426,"un"
"25711",28,794,50,1,"DUSK","before",1,426,"un"
"25712",34,373,1050,1,"WRESTLING","own",1,426,"un"
"25713",36,726,50,1,"CLERK","metal",1,426,"un"
"25714",42,305,1050,1,"SKY","cold",1,426,"un"
"25715",44,824,50,1,"THIRD","cars",1,426,"un"
"25847",2,100,1050,1,"RECLINER","usa",1,426,"un"
"25848",8,716,50,1,"PRIVATE","watch",1,426,"un"
"25849",9,56,50,1,"DIP","action",1,426,"un"
"25851",28,68,1050,1,"BENEFIT","idea",1,426,"un"
"25852",32,275,1050,1,"BEGINNER","dull",1,426,"un"
"25853",35,713,1050,1,"CANDIDATE","bed",1,426,"un"
"25854",42,137,1050,1,"SEED","squirrel",1,426,"un"
"25856",44,483,50,1,"TOOLS","garden",1,426,"un"
"25857",44,505,50,1,"TABLET","yes",1,426,"un"
"25988",16,366,1050,1,"CLERK","person",1,426,"rel"
"25989",17,711,1050,1,"FLING","flirt",1,426,"rel"
"25990",18,5,1050,1,"HITCH","trailer",1,426,"rel"
"25991",18,93,1050,1,"HEAT","florida",1,426,"rel"
"25992",18,706,50,1,"BEAM","smile",1,426,"rel"
"25993",18,197,1050,1,"IMPORTANT","major",1,426,"rel"
"25994",26,350,1050,1,"BARBECUE","ribs",1,426,"rel"
"25995",26,396,1050,1,"CELLAR","attic",1,426,"rel"
"25996",36,265,1050,1,"SMOOTH","skin",1,426,"rel"
"25997",42,555,50,1,"KEYS","chain",1,426,"rel"
"26162",7,16,50,1,"PRODUCTION","movie",1,426,"rel"
"26163",8,452,50,1,"SURE","positive",1,426,"rel"
"26164",12,784,50,1,"SWING","park",1,426,"rel"
"26168",36,57,1050,1,"WIT","smart",1,426,"rel"
"26169",42,668,50,1,"MARSH","swamp",1,426,"rel"
"26170",47,379,50,1,"HUSBAND","wife",1,426,"rel"
"26171",48,167,1050,1,"CRICKET","bug",1,426,"rel"
"26345",2,236,1050,1,"GREED","found",1,427,"un"
"26346",3,474,1050,1,"TECHNOLOGY","dream",1,427,"un"
"26347",5,406,50,1,"PADDLE","period",1,427,"un"
"26348",16,486,50,1,"WALKWAY","hear",1,427,"un"
"26349",28,619,50,1,"TON","act",1,427,"un"
"26350",30,339,1050,1,"TRUCE","simple",1,427,"un"
"26351",35,25,50,1,"DROWN","plant",1,427,"un"
"26352",36,151,1050,1,"PLUMBER","sound",1,427,"un"
"26504",2,28,1050,1,"KNOWN","volcano",1,427,"un"
"26505",12,417,50,1,"RAZOR","weather",1,427,"un"
"26506",16,819,50,1,"SHAME","heavy",1,427,"un"
"26507",18,772,50,1,"LOBSTER","increase",1,427,"un"
"26508",18,135,1050,1,"INTERRUPT","up",1,427,"un"
"26509",26,784,50,1,"DUCKS","fair",1,427,"un"
"26511",27,204,50,1,"COMPLAIN","grass",1,427,"un"
"26512",33,207,50,1,"INDIRECT","doctor",1,427,"un"
"26643",5,425,1050,1,"DARK","cold",1,427,"rel"
"26644",13,734,1050,1,"SPOOL","sew",1,427,"rel"
"26645",16,774,50,1,"ACID","drug",1,427,"rel"
"26647",26,181,1050,1,"HUSK","elephant",1,427,"rel"
"26648",26,256,1050,1,"STILL","quiet",1,427,"rel"
"26649",26,711,50,1,"PITCHER","tea",1,427,"rel"
"26650",28,251,1050,1,"EQUAL","rights",1,427,"rel"
"26651",33,5,50,1,"DINER","supper",1,427,"rel"
"26652",42,617,50,1,"PIT","hell",1,427,"rel"
"26653",42,446,50,1,"DINER","supper",1,427,"rel"
"26654",47,79,50,1,"THIRD","three",1,427,"rel"
"26841",2,352,1050,1,"ABOVE","below",1,427,"rel"
"26842",2,622,50,1,"LIPS","kiss",1,427,"rel"
"26843",5,555,1050,1,"DECREASE","increase",1,427,"rel"
"26844",6,41,1050,1,"SONNET","poem",1,427,"rel"
"26845",6,767,50,1,"TENT","camp",1,427,"rel"
"26846",9,52,50,1,"BALL","bat",1,427,"rel"
"26847",10,747,50,1,"SCENERY","view",1,427,"rel"
"26848",12,194,1050,1,"MAMMAL","whale",1,427,"rel"
"26849",15,60,50,1,"NECKLACE","gold",1,427,"rel"
"26850",18,712,50,1,"TUXEDO","prom",1,427,"rel"
"26851",26,492,50,1,"SURROUNDING","around",1,427,"rel"
"26852",29,686,1050,1,"BOUNTY","hunter",1,427,"rel"
"26853",36,547,50,1,"SHARP","point",1,427,"rel"
"26854",42,366,1050,1,"ATTIRE","clothes",1,427,"rel"
"26855",42,520,50,1,"CURIOUS","george",1,427,"rel"
"26857",47,378,50,1,"PRECIOUS","valuable",1,427,"rel"
"27050",5,549,1050,1,"WORD","hours",1,428,"un"
"27051",6,600,50,1,"RESPONSIBLE","throw",1,428,"un"
"27055",22,64,1050,1,"PIN","fire",1,428,"un"
"27056",24,287,1050,1,"MOVE","science",1,428,"un"
"27057",26,110,1050,1,"TEND","society",1,428,"un"
"27058",35,406,50,1,"POSSIBLE","castle",1,428,"un"
"27202",3,806,1050,1,"FORM","law",1,428,"un"
"27203",3,53,50,1,"DAIRY","belt",1,428,"un"
"27204",5,680,1050,1,"OUCH","go",1,428,"un"
"27206",16,420,50,1,"ACTRESS","key",1,428,"un"
"27207",18,741,50,1,"OVERWHELM","again",1,428,"un"
"27209",42,796,50,1,"FRISK","act",1,428,"un"
"27344",2,548,50,1,"SAVIOR","taste",1,428,"rel"
"27345",5,449,1050,1,"SUSPECT","jail",1,428,"rel"
"27346",5,457,1050,1,"STAIR","way",1,428,"rel"
"27347",7,259,50,1,"ACID","drug",1,428,"rel"
"27350",15,167,50,1,"SECOND","minute",1,428,"rel"
"27351",16,89,1050,1,"EINSTEIN","brain",1,428,"rel"
"27352",20,735,50,1,"TURNIP","carrot",1,428,"rel"
"27354",36,24,1050,1,"FEEBLE","attempt",1,428,"rel"
"27356",36,588,50,1,"HISTORY","war",1,428,"rel"
"27357",42,766,50,1,"WATERFALL","beautiful",1,428,"rel"
"27358",44,531,50,1,"LETTER","note",1,428,"rel"
"27512",2,476,50,1,"HANDLE","care",1,428,"rel"
"27513",6,44,1050,1,"ASTRONAUT","space",1,428,"rel"
"27514",9,264,50,1,"COMPASS","direction",1,428,"rel"
"27516",18,289,1050,1,"MEANING","definition",1,428,"rel"
"27517",21,131,50,1,"JUST","fair",1,428,"rel"
"27518",26,663,50,1,"SOCK","shoe",1,428,"rel"
"27519",33,280,50,1,"CONSTRUCTION","build",1,428,"rel"
"27520",42,754,50,1,"MALL","shop",1,428,"rel"
"27707",3,481,1050,1,"SUCK","three",1,429,"un"
"27708",3,309,50,1,"DROWN","plant",1,429,"un"
"27709",6,56,1050,1,"VICTIM","dependable",1,429,"un"
"27710",15,718,1050,1,"PREFER","two",1,429,"un"
"27711",19,57,50,1,"MEXICO","control",1,429,"un"
"27712",26,32,1050,1,"ORDERLY","college",1,429,"un"
"27713",27,57,50,1,"SAND","boat",1,429,"un"
"27714",32,82,1050,1,"RING","soprano",1,429,"un"
"27716",40,566,50,1,"BAGEL","sale",1,429,"un"
"27847",2,131,1050,1,"BRISTLE","sound",1,429,"un"
"27848",7,44,50,1,"QUILL","public",0,429,"un"
"27849",8,24,1050,1,"PLAZA","twelve",1,429,"un"
"27851",26,272,1050,1,"MOVEMENT","fishing",1,429,"un"
"27852",26,476,50,1,"SENATE","open",1,429,"un"
"27969",10,396,1050,1,"VEGETABLE","food",1,429,"rel"
"27970",16,563,50,1,"HEM","leg",1,429,"rel"
"27971",26,153,1050,1,"BATH","towel",1,429,"rel"
"27972",33,99,50,1,"CURSE","swear",1,429,"rel"
"27973",45,718,1050,1,"STOOL","sit",1,429,"rel"
"28103",3,256,50,1,"MUG","beer",1,429,"rel"
"28104",3,515,1050,1,"INTOXICATED","drunk",1,429,"rel"
"28105",5,386,50,1,"FEMALE","male",1,429,"rel"
"28106",7,771,1050,1,"FROSTED","flakes",1,429,"rel"
"28107",7,766,1050,1,"ORE","iron",1,429,"rel"
"28108",8,700,50,1,"PLAIN","simple",1,429,"rel"
"28109",9,252,50,1,"BURIAL","death",1,429,"rel"
"28112",18,327,1050,1,"INSTINCT","basic",1,429,"rel"
"28113",18,450,50,1,"SOCIETY","people",1,429,"rel"
"28115",26,147,1050,1,"PARADISE","island",1,429,"rel"
"28116",27,273,50,1,"POET","writer",1,429,"rel"
"28117",30,82,1050,1,"BAGGAGE","luggage",1,429,"rel"
"28118",32,188,1050,1,"LODGE","cabin",1,429,"rel"
"28119",33,271,50,1,"HOLE","ground",1,429,"rel"
"28120",42,87,1050,1,"QUANTITY","amount",1,429,"rel"
"28121",42,312,1050,1,"ARROW","bow",1,429,"rel"
"28122",42,677,50,1,"SCENERY","view",1,429,"rel"
"28123",48,294,1050,1,"COACH","team",1,429,"rel"
"28275",3,127,50,1,"STUDY","catholic",0,430,"un"
"28276",5,342,50,1,"SOUP","monster",1,430,"un"
"28277",8,464,50,1,"DATA","lunch",1,430,"un"
"28278",15,134,50,1,"PLATFORM","liberty",1,430,"un"
"28279",15,263,50,1,"FLU","poison",1,430,"un"
"28280",16,406,1050,1,"BLINDS","kind",1,430,"un"
"28282",26,133,1050,1,"CHAMPAGNE","painting",1,430,"un"
"28283",27,761,1050,1,"CONTEXT","need",1,430,"un"
"28284",33,154,50,1,"ENTER","cure",1,430,"un"
"28285",42,143,1050,1,"SOFT","package",1,430,"un"
"28426",2,361,1050,1,"CLAW","glue",1,430,"un"
"28427",2,526,50,1,"CHINA","cab",0,430,"un"
"28428",5,329,50,1,"ARTS","shot",1,430,"un"
"28429",5,146,50,1,"GHETTO","drink",1,430,"un"
"28430",5,409,50,1,"MONOTONOUS","straw",1,430,"un"
"28431",6,50,1050,1,"NONE","full",1,430,"un"
"28432",7,120,50,1,"FAVORITE","cotton",1,430,"un"
"28433",7,708,1050,1,"FOAM","energy",1,430,"un"
"28434",17,793,1050,1,"LEAN","chip",1,430,"un"
"28435",18,409,1050,1,"WARRIOR","slow",1,430,"un"
"28436",19,214,50,1,"MOIST","plan",1,430,"un"
"28438",42,564,50,1,"MINUS","thunder",1,430,"un"
"28439",44,728,50,1,"CONCERN","worker",0,430,"un"
"28575",3,41,50,1,"AUTUMN","spring",1,430,"rel"
"28576",3,67,50,1,"SOUTHERN","states",1,430,"rel"
"28578",14,54,1050,1,"BANK","vault",1,430,"rel"
"28579",15,439,1050,1,"WEAR","dress",1,430,"rel"
"28581",18,654,50,1,"APE","jungle",1,430,"rel"
"28583",18,539,50,1,"BRUISE","knee",1,430,"rel"
"28584",19,217,50,1,"CARELESS","messy",1,430,"rel"
"28585",19,251,50,1,"SMOOTH","skin",1,430,"rel"
"28586",21,25,50,1,"SOUR","lemon",1,430,"rel"
"28587",27,237,50,1,"PRICE","amount",1,430,"rel"
"28588",27,309,50,1,"LASH","hurt",1,430,"rel"
"28589",33,344,50,1,"SILLY","crazy",1,430,"rel"
"28590",36,216,1050,1,"LET","do",0,430,"rel"
"28592",37,78,50,1,"STRING","tie",1,430,"rel"
"28593",40,284,1050,1,"VALENTINE","love",1,430,"rel"
"28594",42,631,50,1,"SIBLING","brother",1,430,"rel"
"28765",3,166,50,1,"HAPPENING","now",1,430,"rel"
"28766",3,440,1050,1,"LEGEND","story",1,430,"rel"
"28767",5,381,50,1,"SUPERSTITION","belief",1,430,"rel"
"28769",9,291,50,1,"LOOSE","tight",1,430,"rel"
"28770",14,98,1050,1,"TEACH","learn",1,430,"rel"
"28771",15,5,50,1,"CAMERA","picture",1,430,"rel"
"28773",19,233,50,1,"AGE","old",1,430,"rel"
"28774",19,323,50,1,"QUIZ","test",1,430,"rel"
"28775",21,32,50,1,"GOODBYE","hello",1,430,"rel"
"28776",33,413,50,1,"REAPPEAR","disappear",1,430,"rel"
"28777",45,734,1050,1,"GLANCE","look",1,430,"rel"
"28958",3,37,50,1,"TOWEL","trait",1,431,"un"
"28959",5,100,50,1,"FOREHEAD","marry",1,431,"un"
"28960",6,777,50,1,"EXPRESS","quiet",1,431,"un"
"28961",9,235,50,1,"AWESOME","circus",1,431,"un"
"28962",15,16,50,1,"BUMPS","give",1,431,"un"
"28963",17,124,50,1,"TRADITION","deer",1,431,"un"
"28964",18,404,1050,1,"DISEASE","amuse",0,431,"un"
"29083",2,230,1050,1,"GUM","blow",1,431,"un"
"29084",5,341,50,1,"UNIFORM","shop",1,431,"un"
"29085",5,461,1050,1,"QUACK","tear",1,431,"un"
"29086",10,210,1050,1,"FORWARD","words",1,431,"un"
"29087",18,293,1050,1,"REPAIR","move",1,431,"un"
"29091",19,213,50,1,"CHILDISH","listen",1,431,"un"
"29092",35,476,1050,1,"OFFENSE","pill",1,431,"un"
"29093",36,765,50,1,"TUSK","mold",0,431,"un"
"29221",2,120,1050,1,"RODENT","bug",1,431,"rel"
"29222",3,110,50,1,"DECEPTION","honesty",1,431,"rel"
"29223",6,334,1050,1,"VAULT","lock",1,431,"rel"
"29224",8,65,1050,1,"SEVEN","eleven",1,431,"rel"
"29226",15,268,50,1,"GENTLE","loving",1,431,"rel"
"29228",19,119,50,1,"HUSTLE","fast",1,431,"rel"
"29229",26,814,50,1,"WALNUT","crack",1,431,"rel"
"29230",26,45,1050,1,"PRIDE","prejudice",1,431,"rel"
"29231",27,744,1050,1,"UNTRUTHFUL","truth",1,431,"rel"
"29232",33,101,50,1,"FILL","dirt",1,431,"rel"
"29233",42,703,50,1,"CHROMOSOMES","sex",1,431,"rel"
"29234",42,745,50,1,"MIMIC","fake",1,431,"rel"
"29235",44,604,50,1,"STABLE","okay",1,431,"rel"
"29236",45,2,50,1,"IGNORE","mean",1,431,"rel"
"29380",2,223,1050,1,"PATIENCE","virtue",1,431,"rel"
"29381",2,375,1050,1,"EMOTION","feeling",1,431,"rel"
"29383",5,825,1050,1,"PARKWAY","cars",1,431,"rel"
"29384",5,187,50,1,"ASS","donkey",1,431,"rel"
"29385",5,415,50,1,"PERFORM","act",1,431,"rel"
"29386",9,533,1050,1,"CELERY","carrot",0,431,"rel"
"29387",16,611,50,1,"TOSS","throw",1,431,"rel"
"29388",16,226,1050,1,"APPEARANCE","looks",1,431,"rel"
"29389",17,340,50,1,"HERE","there",1,431,"rel"
"29390",18,736,50,1,"HONEY","sweet",0,431,"rel"
"29391",18,574,50,1,"THICK","thin",0,431,"rel"
"29392",36,52,1050,1,"FAIL","pass",1,431,"rel"
"29393",42,460,50,1,"DEFEND","protect",1,431,"rel"
"29394",44,217,1050,1,"BEARD","mustache",1,431,"rel"
"29571",5,493,1050,1,"CARESS","purple",1,432,"un"
"29572",5,210,50,1,"NUCLEAR","chance",1,432,"un"
"29573",5,576,1050,1,"GLANDS","iron",1,432,"un"
"29576",15,213,50,1,"FIT","load",1,432,"un"
"29577",16,567,50,1,"PRAISE","comfortable",1,432,"un"
"29578",18,613,50,1,"CHALK","diamond",1,432,"un"
"29579",18,638,50,1,"ADJUSTMENT","stone",1,432,"un"
"29580",26,765,50,1,"EVENING","promise",1,432,"un"
"29581",33,214,50,1,"YUMMY","rain",1,432,"un"
"29582",34,710,50,1,"CUDDLE","weak",1,432,"un"
"29583",36,552,50,1,"RESTAURANT","man",1,432,"un"
"29584",42,1,1050,1,"TRADITION","deer",1,432,"un"
"29585",42,199,1050,1,"PROCEDURE","asleep",1,432,"un"
"29586",42,499,50,1,"ASHAMED","fragile",1,432,"un"
"29724",5,675,1050,1,"CHEMISTRY","body",1,432,"un"
"29725",7,119,50,1,"FOREVER","test",1,432,"un"
"29726",7,172,50,1,"THRESHOLD","mail",1,432,"un"
"29727",16,205,1050,1,"DISBELIEVE","own",1,432,"un"
"29728",16,401,1050,1,"CYLINDER","floor",1,432,"un"
"29729",16,597,50,1,"ATLAS","take",1,432,"un"
"29730",18,14,1050,1,"WHISKEY","study",1,432,"un"
"29731",19,19,50,1,"GULLIBLE","husband",1,432,"un"
"29733",26,718,50,1,"PRACTICE","data",1,432,"un"
"29735",40,571,50,1,"SONG","tie",1,432,"un"
"29737",42,687,50,1,"PERFORM","lost",1,432,"un"
"29738",47,445,1050,1,"DEMOCRAT","careful",1,432,"un"
"29838",3,165,50,1,"BIBLE","holy",1,432,"rel"
"29839",5,18,50,1,"PALM","sunday",1,432,"rel"
"29840",6,93,1050,1,"PICKET","cause",1,432,"rel"
"29841",7,542,1050,1,"POPCORN","butter",1,432,"rel"
"29842",15,83,50,1,"SOME","thing",1,432,"rel"
"29843",17,613,1050,1,"COMPLICATED","simple",1,432,"rel"
"29844",18,38,1050,1,"SIBLING","brother",1,432,"rel"
"29845",26,829,50,1,"CARESS","soft",1,432,"rel"
"29846",27,466,1050,1,"HEALTH","care",1,432,"rel"
"29847",34,166,1050,1,"NOVEL","read",1,432,"rel"
"29848",37,403,50,1,"SNOW","ski",1,432,"rel"
"29849",42,664,50,1,"LOG","cabin",1,432,"rel"
"29850",42,581,50,1,"DULL","knife",1,432,"rel"
"30018",5,86,50,1,"OPPOSITE","same",1,432,"rel"
"30019",7,109,50,1,"SUPERIOR","inferior",1,432,"rel"
"30020",7,505,1050,1,"CLAM","oyster",1,432,"rel"
"30021",7,768,1050,1,"APPEARANCE","looks",1,432,"rel"
"30022",14,23,1050,1,"REMARK","comment",1,432,"rel"
"30023",15,587,1050,1,"ASSAULT","attack",1,432,"rel"
"30024",16,130,1050,1,"SUITE","hotel",1,432,"rel"
"30025",17,302,50,1,"SPANISH","language",1,432,"rel"
"30028",20,52,1050,1,"COMMANDER","chief",1,432,"rel"
"30029",26,413,1050,1,"THRONE","king",1,432,"rel"
"30030",26,563,50,1,"DEVELOP","grow",1,432,"rel"
"30031",28,779,50,1,"JAW","mouth",1,432,"rel"
"30032",41,301,50,1,"LEARN","teach",1,432,"rel"
"30033",42,100,1050,1,"BURGLARY","robbery",1,432,"rel"
"30034",48,530,50,1,"VOMIT","puke",1,432,"rel"
"30185",3,595,1050,1,"GRACEFUL","ear",1,433,"un"
"30186",5,467,1050,1,"CRATER","hell",1,433,"un"
"30188",19,404,50,1,"PATTERN","touch",1,433,"un"
"30189",26,344,1050,1,"ALMANAC","devil",1,433,"un"
"30190",35,31,50,1,"ENTRY","sheep",1,433,"un"
"30191",35,109,50,1,"WATCH","plane",1,433,"un"
"30192",36,297,1050,1,"ANALYSIS","mom",0,433,"un"
"30193",40,564,50,1,"POPE","like",1,433,"un"
"30341",3,205,50,1,"CHANGE","chicken",1,433,"un"
"30342",7,200,50,1,"HOSTESS","days",1,433,"un"
"30343",16,665,50,1,"ACCOMPLISH","gather",1,433,"un"
"30344",33,140,50,1,"CHIPMUNK","cards",0,433,"un"
"30345",36,622,50,1,"AGREEMENT","high",1,433,"un"
"30346",42,496,50,1,"TECHNIQUE","touch",1,433,"un"
"30348",48,829,50,1,"SORRY","town",1,433,"un"
"30474",5,379,50,1,"TRADITION","always",1,433,"rel"
"30475",9,231,50,1,"ENRAGE","calm",1,433,"rel"
"30479",19,69,50,1,"LESS","zero",1,433,"rel"
"30480",20,14,1050,1,"BRAVADO","great",1,433,"rel"
"30481",20,35,1050,1,"SIDEWALK","walkway",1,433,"rel"
"30482",26,55,1050,1,"RAINY","weather",1,433,"rel"
"30483",29,12,50,1,"BAKER","cake",1,433,"rel"
"30485",33,179,50,1,"FLICK","off",1,433,"rel"
"30486",33,597,1050,1,"PITY","shame",1,433,"rel"
"30487",33,805,1050,1,"TESTIFY","confess",1,433,"rel"
"30488",36,668,50,1,"CHEAP","sale",1,433,"rel"
"30489",42,518,50,1,"BALLOT","elect",1,433,"rel"
"30490",42,822,50,1,"MORAL","values",1,433,"rel"
"30680",3,212,50,1,"SWING","park",1,433,"rel"
"30681",3,468,1050,1,"FLAT","tire",1,433,"rel"
"30682",5,506,1050,1,"TONE","sound",1,433,"rel"
"30683",8,26,1050,1,"VEST","jacket",1,433,"rel"
"30685",15,30,50,1,"SUGGESTION","idea",1,433,"rel"
"30686",16,633,50,1,"PRIME","ribs",1,433,"rel"
"30688",26,582,50,1,"CAULIFLOWER","broccoli",1,433,"rel"
"30689",26,360,1050,1,"CHIME","bell",1,433,"rel"
"30690",27,168,50,1,"FLAT","tire",1,433,"rel"
"30691",29,106,50,1,"LIKE","love",1,433,"rel"
"30692",33,261,50,1,"SILK","satin",1,433,"rel"
"30693",33,194,50,1,"SUMMIT","peak",1,433,"rel"
"30694",33,399,50,1,"TRAIL","path",1,433,"rel"
"30696",42,109,1050,1,"SPANISH","language",1,433,"rel"
"30697",42,436,50,1,"YEARS","age",1,433,"rel"
"30698",44,16,1050,1,"ACCOMPLISH","finish",1,433,"rel"
"30699",47,58,50,1,"CHAIR","table",1,433,"rel"
"30700",47,241,50,1,"KILL","murder",1,433,"rel"
"30879",5,696,1050,1,"SPAN","forest",1,434,"un"
"30880",6,641,50,1,"BREAKFAST","queen",1,434,"un"
"30881",7,171,50,1,"WORST","minus",1,434,"un"
"30883",9,373,50,1,"COMPANION","ill",1,434,"un"
"30884",15,7,50,1,"CONSTRUCT","bone",1,434,"un"
"30885",18,717,50,1,"CUE","tell",1,434,"un"
"30886",18,815,50,1,"YARD","cake",1,434,"un"
"30887",19,21,50,1,"ANALYSIS","mom",1,434,"un"
"30888",20,705,50,1,"MONTH","clock",1,434,"un"
"30889",26,22,1050,1,"DEGRADE","hit",1,434,"un"
"30890",26,385,1050,1,"COB","magic",1,434,"un"
"30892",42,550,50,1,"HARLEY","town",1,434,"un"
"31039",5,200,50,1,"TANK","bump",1,434,"un"
"31040",6,254,1050,1,"LEADER","fear",1,434,"un"
"31041",15,148,50,1,"FIVE","hungry",1,434,"un"
"31042",15,609,1050,1,"LOSS","boots",1,434,"un"
"31044",16,228,1050,1,"EASTER","noise",1,434,"un"
"31045",18,755,50,1,"NAG","oven",1,434,"un"
"31046",18,195,1050,1,"WARMTH","ketchup",1,434,"un"
"31047",18,245,1050,1,"HOUR","fudge",1,434,"un"
"31048",18,275,1050,1,"GRADE","woman",1,434,"un"
"31051",42,201,1050,1,"LOBE","style",1,434,"un"
"31052",42,289,1050,1,"LIGHTNING","plant",1,434,"un"
"31053",42,71,1050,1,"SLIDE","drain",1,434,"un"
"31206",2,188,1050,1,"BLOCKS","children",1,434,"rel"
"31207",2,788,50,1,"RAINY","weather",1,434,"rel"
"31208",3,149,50,1,"SORORITY","women",1,434,"rel"
"31209",5,518,1050,1,"SCAR","fight",1,434,"rel"
"31210",7,130,50,1,"GEOLOGY","land",1,434,"rel"
"31211",10,16,1050,1,"LAWSUIT","law",1,434,"rel"
"31212",14,75,1050,1,"ONCE","never",1,434,"rel"
"31213",16,761,50,1,"ENTRY","enter",1,434,"rel"
"31214",27,232,50,1,"PRAISE","glory",1,434,"rel"
"31215",28,153,1050,1,"CONTENT","book",1,434,"rel"
"31216",47,66,50,1,"PORK","bacon",1,434,"rel"
"31384",5,221,50,1,"HOUR","minute",1,434,"rel"
"31385",5,85,50,1,"AFTER","before",1,434,"rel"
"31386",5,203,50,1,"BEE","sting",1,434,"rel"
"31387",7,279,50,1,"RUNNER","jogger",1,434,"rel"
"31388",7,349,50,1,"CHOOSE","pick",1,434,"rel"
"31389",8,358,1050,1,"ADMIT","confess",1,434,"rel"
"31390",10,404,1050,1,"SLY","fox",1,434,"rel"
"31391",18,238,1050,1,"SAUCER","cup",1,434,"rel"
"31392",26,293,1050,1,"MEANING","definition",1,434,"rel"
"31393",26,568,50,1,"CLAIM","insurance",1,434,"rel"
"31394",27,800,1050,1,"SWING","park",1,434,"rel"
"31396",33,105,50,1,"ARTS","crafts",1,434,"rel"
"31397",42,451,50,1,"SHEEP","wool",1,434,"rel"
"31625",16,358,1050,1,"SALES","when",1,435,"un"
"31626",18,156,1050,1,"LIFT","one",1,435,"un"
"31628",32,97,1050,1,"FADE","seven",1,435,"un"
"31629",36,467,50,1,"EARRING","oven",1,435,"un"
"31630",36,706,50,1,"MEMORY","rule",1,435,"un"
"31631",42,436,50,1,"FEUD","juice",1,435,"un"
"31632",48,69,1050,1,"COMPUTER","poor",1,435,"un"
"31803",5,484,1050,1,"SAPPHIRE","aunt",1,435,"un"
"31804",7,305,50,1,"DISLIKE","sand",1,435,"un"
"31805",7,348,50,1,"DECAY","purpose",1,435,"un"
"31806",7,405,50,1,"POSITIVE","always",1,435,"un"
"31808",15,370,50,1,"UNCONSCIOUS","live",1,435,"un"
"31809",16,640,50,1,"CONCLUSION","smell",1,435,"un"
"31812",18,328,1050,1,"THESAURUS","animal",1,435,"un"
"31814",26,236,1050,1,"RAISIN","clue",1,435,"un"
"31817",33,230,50,1,"TREBLE","oil",0,435,"un"
"31818",36,450,50,1,"GIFT","who",1,435,"un"
"31820",42,369,1050,1,"WEST","person",1,435,"un"
"31979",5,766,1050,1,"LOCAL","far",1,435,"rel"
"31980",5,98,50,1,"RELAX","tense",1,435,"rel"
"31981",6,827,50,1,"CURTAINS","closed",1,435,"rel"
"31982",7,359,50,1,"MAZE","lost",1,435,"rel"
"31983",7,494,1050,1,"TECHNOLOGY","future",1,435,"rel"
"31984",8,85,1050,1,"BOTTLE","booze",1,435,"rel"
"31985",8,429,50,1,"COLONEL","general",1,435,"rel"
"31986",8,449,50,1,"ACE","poker",1,435,"rel"
"31987",9,124,50,1,"BONE","chicken",1,435,"rel"
"31988",16,653,50,1,"MUNCH","chew",1,435,"rel"
"31989",16,182,1050,1,"MULE","pull",1,435,"rel"
"31990",16,594,50,1,"MINERAL","rock",1,435,"rel"
"31991",18,480,50,1,"CURE","help",1,435,"rel"
"31993",18,340,1050,1,"SAVIOR","taste",1,435,"rel"
"31994",21,444,1050,1,"MARRIAGE","wedding",1,435,"rel"
"31995",26,594,50,1,"SURGEON","surgery",1,435,"rel"
"31996",28,335,1050,1,"BRAVADO","great",1,435,"rel"
"31997",33,592,1050,1,"OBOE","flute",1,435,"rel"
"31998",42,518,50,1,"VENT","anger",1,435,"rel"
"31999",44,814,50,1,"PUT","away",1,435,"rel"
"32191",2,169,1050,1,"BEAUTY","beast",1,435,"rel"
"32192",4,70,1050,1,"DISLIKE","hate",1,435,"rel"
"32193",6,814,50,1,"SHIFT","move",1,435,"rel"
